"trial_type","trial_index","time_elapsed","internal_node_id","subject","prolific_id","study_id","session_id","condition","rt","url","view_history","response","question_order","value","question","options","llm_answer","population_answer","task","subj_id","label","example_id","variant","main_variant","topic","prompt","0","btn_clicked","score","timeToClick","modelPred","humanCorrect","modelCorrect","interfaceType","modelPredDist","human_support_used","human_support_clicks","llm_support_used","llm_support_clicks","recommendation_lists","incorrect_answers_by_category","recommendation","LLM_outsourcing_overridden","human_outsourcing_overridden","ai_orch_agreement","human_orch_agreement","self_orch_agreement","stimulus"
"pavlovia","0","1217","0.0-0.0","qn3ur87dsephmtc","668048bf23b961683549d089","67b62c430b9240ccd8986e70","67b631c487e7b8e1a3e9d597","1","","","","","","","","","","","","","","","","","","","","","","","","","","","","","","","","","","","","","","","",""
"external-html","1","8590","0.0-1.0","qn3ur87dsephmtc","668048bf23b961683549d089","67b62c430b9240ccd8986e70","67b631c487e7b8e1a3e9d597","1","7242.199999988079","consent.html","","","","","","","","","","","","","","","","","","","","","","","","","","","","","","","","","","","","","",""
"instructions","2","66322","0.0-2.0-0.0","qn3ur87dsephmtc","668048bf23b961683549d089","67b62c430b9240ccd8986e70","67b631c487e7b8e1a3e9d597","1","57732.29999998212","","[{""page_index"":0,""viewing_time"":6981.699999988079},{""page_index"":1,""viewing_time"":15875.300000011921},{""page_index"":2,""viewing_time"":7096.699999988079},{""page_index"":3,""viewing_time"":6071.200000017881},{""page_index"":4,""viewing_time"":11893.299999982119},{""page_index"":5,""viewing_time"":5059.700000017881},{""page_index"":6,""viewing_time"":1422.5999999940395},{""page_index"":7,""viewing_time"":3331.5}]","","","","","","","","","","","","","","","","","","","","","","","","","","","","","","","","","","","","",""
"survey-multi-choice","3","74058","0.0-2.0-1.0","qn3ur87dsephmtc","668048bf23b961683549d089","67b62c430b9240ccd8986e70","67b631c487e7b8e1a3e9d597","1","7734.699999988079","","","{""Q0"":""The answer to a mutliple choice question."",""Q1"":""Typing in a text box.""}","[0,1]","","","","","","","","","","","","","","","","","","","","","","","","","","","","","","","","","","",""
"instructions","4","92785","0.0-2.1-0.1","qn3ur87dsephmtc","668048bf23b961683549d089","67b62c430b9240ccd8986e70","67b631c487e7b8e1a3e9d597","1","18726.80000001192","","[{""page_index"":0,""viewing_time"":9422.09999999404},{""page_index"":1,""viewing_time"":1770.4000000059605},{""page_index"":2,""viewing_time"":1350.300000011921},{""page_index"":3,""viewing_time"":1964.0999999940395},{""page_index"":4,""viewing_time"":1051.800000011921},{""page_index"":5,""viewing_time"":1082.0999999940395},{""page_index"":6,""viewing_time"":695.0999999940395},{""page_index"":7,""viewing_time"":1390.300000011921}]","","","","","","","","","","","","","","","","","","","","","","","","","","","","","","","","","","","","",""
"survey-multi-choice","5","104668","0.0-2.1-1.1","qn3ur87dsephmtc","668048bf23b961683549d089","67b62c430b9240ccd8986e70","67b631c487e7b8e1a3e9d597","1","11881.100000023842","","","{""Q0"":""The answer to a mutliple choice question."",""Q1"":""Selecting from a dropdown menu.""}","[0,1]","","","","","","","","","","","","","","","","","","","","","","","","","","","","","","","","","","",""
"instructions","6","117382","0.0-2.2-0.2","qn3ur87dsephmtc","668048bf23b961683549d089","67b62c430b9240ccd8986e70","67b631c487e7b8e1a3e9d597","1","12713.300000011921","","[{""page_index"":0,""viewing_time"":2196.0999999940395},{""page_index"":1,""viewing_time"":2141.9000000059605},{""page_index"":2,""viewing_time"":3654.300000011921},{""page_index"":3,""viewing_time"":1236.7999999821186},{""page_index"":4,""viewing_time"":1066.800000011921},{""page_index"":5,""viewing_time"":953.7999999821186},{""page_index"":6,""viewing_time"":816.5},{""page_index"":7,""viewing_time"":646.6000000238419}]","","","","","","","","","","","","","","","","","","","","","","","","","","","","","","","","","","","","",""
"survey-multi-choice","7","131048","0.0-2.2-1.2","qn3ur87dsephmtc","668048bf23b961683549d089","67b62c430b9240ccd8986e70","67b631c487e7b8e1a3e9d597","1","13663.699999988079","","","{""Q0"":""The answer to a mutliple choice question."",""Q1"":""Selecting from a dropdown menu.""}","[0,1]","","","","","","","","","","","","","","","","","","","","","","","","","","","","","","","","","","",""
"instructions","8","154263","0.0-2.3-0.3","qn3ur87dsephmtc","668048bf23b961683549d089","67b62c430b9240ccd8986e70","67b631c487e7b8e1a3e9d597","1","23215.30000001192","","[{""page_index"":0,""viewing_time"":4193.800000011921},{""page_index"":1,""viewing_time"":1042.5},{""page_index"":2,""viewing_time"":590.5999999940395},{""page_index"":3,""viewing_time"":2546.0999999940395},{""page_index"":2,""viewing_time"":2538.4000000059605},{""page_index"":3,""viewing_time"":436.7000000178814},{""page_index"":4,""viewing_time"":1074.8999999761581},{""page_index"":5,""viewing_time"":2020.7000000178814},{""page_index"":4,""viewing_time"":1066.5},{""page_index"":3,""viewing_time"":3929.5},{""page_index"":4,""viewing_time"":622.2999999821186},{""page_index"":5,""viewing_time"":193.90000000596046},{""page_index"":6,""viewing_time"":784.2000000178814},{""page_index"":7,""viewing_time"":2174.699999988079}]","","","","","","","","","","","","","","","","","","","","","","","","","","","","","","","","","","","","",""
"survey-multi-choice","9","163811","0.0-2.3-1.3","qn3ur87dsephmtc","668048bf23b961683549d089","67b62c430b9240ccd8986e70","67b631c487e7b8e1a3e9d597","1","9546.100000023842","","","{""Q0"":""The most likely categories of an image."",""Q1"":""Selecting from a dropdown menu.""}","[0,1]","","","","","","","","","","","","","","","","","","","","","","","","","","","","","","","","","","",""
"instructions","10","169283","0.0-2.4-0.4","qn3ur87dsephmtc","668048bf23b961683549d089","67b62c430b9240ccd8986e70","67b631c487e7b8e1a3e9d597","1","5470.199999988079","","[{""page_index"":0,""viewing_time"":1395.699999988079},{""page_index"":1,""viewing_time"":1236.6000000238419},{""page_index"":2,""viewing_time"":412.2999999821186},{""page_index"":3,""viewing_time"":469},{""page_index"":4,""viewing_time"":436.90000000596046},{""page_index"":5,""viewing_time"":306.59999999403954},{""page_index"":6,""viewing_time"":751.8000000119209},{""page_index"":7,""viewing_time"":460.7999999821186}]","","","","","","","","","","","","","","","","","","","","","","","","","","","","","","","","","","","","",""
"survey-multi-choice","11","175039","0.0-2.4-1.4","qn3ur87dsephmtc","668048bf23b961683549d089","67b62c430b9240ccd8986e70","67b631c487e7b8e1a3e9d597","1","5754.899999976158","","","{""Q0"":""The least likely answer to a multiple choice question."",""Q1"":""Selecting from a dropdown menu.""}","[0,1]","","","","","","","","","","","","","","","","","","","","","","","","","","","","","","","","","","",""
"instructions","12","179282","0.0-2.5-0.5","qn3ur87dsephmtc","668048bf23b961683549d089","67b62c430b9240ccd8986e70","67b631c487e7b8e1a3e9d597","1","4241.699999988079","","[{""page_index"":0,""viewing_time"":1645.7999999821186},{""page_index"":1,""viewing_time"":687.9000000059605},{""page_index"":2,""viewing_time"":210.7000000178814},{""page_index"":3,""viewing_time"":169.39999997615814},{""page_index"":4,""viewing_time"":145.60000002384186},{""page_index"":5,""viewing_time"":169.7999999821186},{""page_index"":6,""viewing_time"":1059.300000011921},{""page_index"":7,""viewing_time"":152.7999999821186}]","","","","","","","","","","","","","","","","","","","","","","","","","","","","","","","","","","","","",""
"survey-multi-choice","13","186130","0.0-2.5-1.5","qn3ur87dsephmtc","668048bf23b961683549d089","67b62c430b9240ccd8986e70","67b631c487e7b8e1a3e9d597","1","6845.9000000059605","","","{""Q0"":""The answer to a mutliple choice question."",""Q1"":""Clicking on a radio button.""}","[0,1]","","","","","","","","","","","","","","","","","","","","","","","","","","","","","","","","","","",""
"instructions","14","205611","0.0-3.0","qn3ur87dsephmtc","668048bf23b961683549d089","67b62c430b9240ccd8986e70","67b631c487e7b8e1a3e9d597","1","19480.40000000596","","[{""page_index"":0,""viewing_time"":19479.80000001192}]","","","","","","","","","","","","","","","","","","","","","","","","","","","","","","","","","","","","",""
"call-function","15","205613","0.0-4.0-0.0","qn3ur87dsephmtc","668048bf23b961683549d089","67b62c430b9240ccd8986e70","67b631c487e7b8e1a3e9d597","1","","","","","","defer","How many ways are there to choose 3 cards from a standard deck of 52 cards, if all three cards must be of different suits? (Assume that the order of the cards does not matter.)","[""8788"",""2"",""2197"",""21""]","C","B","modiste","","A","78","algLinUCB_0.9","diff-topics","high_school_mathematics","The following are multiple choice questions about high_school_mathematics.
Colton and his dad bought a gallon of paint that cost $13. They also bought 2 brushes that cost $9 each. What was the total cost, not including tax, of the brushes and the paint they bought?
(A) $22, (B) $24, (C) $31, (D) $35
Answer: C
Solve for y. y – 2 + 3y = 10
(A) 2, (B) 3, (C) 4, (D) 5
Answer: B
Solve 3 over 2 * w = 66.
(A) 33, (B) 44, (C) 88, (D) 99
Answer: B
Write 5.875 as a mixed number or fraction in simplest form.
(A) 5 and 8 over 9, (B) 5 and 7 over 8, (C) 7 over 8, (D) 5 and 87 over 105
Answer: B
Solve the equation 124 = m + 34.
(A) 158, (B) 90, (C) 88, (D) 4,216
Answer: B
Zelma buys p pounds of bananas for 40 cents per pound. She pays the clerk with a twenty-dollar bill. The clerk subtracts the total cost of the bananas from the twenty-dollar bill to determine the amount of change to give Zelma. Which expression represents the amount of change Zelma should receive?
(A) p - 20, (B) 20 - 40p, (C) 20 - 0.40p, (D) 0.40p - 20
Answer: C
Please answer the following question with just the correct option (A, B, C, or D) without any explanation or additional text.
How many ways are there to choose 3 cards from a standard deck of 52 cards, if all three cards must be of different suits? (Assume that the order of the cards does not matter.)
(A) '8788', (B) '2', (C) '2197', (D) '21'
Answer:","","","","","","","","","","","","","","","","","","","","","",""
"survey-html-form","16","248350","0.0-4.0-1.0","qn3ur87dsephmtc","668048bf23b961683549d089","67b62c430b9240ccd8986e70","67b631c487e7b8e1a3e9d597","1","42734.20000001788","","","{""mcAnswer"":""C""}","","","How many ways are there to choose 3 cards from a standard deck of 52 cards, if all three cards must be of different suits? (Assume that the order of the cards does not matter.)","[""8788"",""2"",""2197"",""21""]","C","B","modiste","","A","78","algLinUCB_0.9","diff-topics","high_school_mathematics","The following are multiple choice questions about high_school_mathematics.
Colton and his dad bought a gallon of paint that cost $13. They also bought 2 brushes that cost $9 each. What was the total cost, not including tax, of the brushes and the paint they bought?
(A) $22, (B) $24, (C) $31, (D) $35
Answer: C
Solve for y. y – 2 + 3y = 10
(A) 2, (B) 3, (C) 4, (D) 5
Answer: B
Solve 3 over 2 * w = 66.
(A) 33, (B) 44, (C) 88, (D) 99
Answer: B
Write 5.875 as a mixed number or fraction in simplest form.
(A) 5 and 8 over 9, (B) 5 and 7 over 8, (C) 7 over 8, (D) 5 and 87 over 105
Answer: B
Solve the equation 124 = m + 34.
(A) 158, (B) 90, (C) 88, (D) 4,216
Answer: B
Zelma buys p pounds of bananas for 40 cents per pound. She pays the clerk with a twenty-dollar bill. The clerk subtracts the total cost of the bananas from the twenty-dollar bill to determine the amount of change to give Zelma. Which expression represents the amount of change Zelma should receive?
(A) p - 20, (B) 20 - 40p, (C) 20 - 0.40p, (D) 0.40p - 20
Answer: C
Please answer the following question with just the correct option (A, B, C, or D) without any explanation or additional text.
How many ways are there to choose 3 cards from a standard deck of 52 cards, if all three cards must be of different suits? (Assume that the order of the cards does not matter.)
(A) '8788', (B) '2', (C) '2197', (D) '21'
Answer:","","","","","","","","","","","","","","","","","","","","","",""
"","","","","","","","","","","","","","","","","","","","","","","","","","","","C","","","","","","","","","","","","","","","","","","","","",""
"","","","","","","","","","","","","","","","","","","","","","","","","","","","","false","100","-1","C","false","false","defer","[]","false","0","false","0","{""elementary_mathematics"":[""40/50"",""31/50"",""4 / 5""],""high_school_mathematics"":[""27/50"",""22/50"",""3/6""],""college_mathematics"":[""22/50"",""26/50"",""2 / 5""]}","{""high_school_mathematics"":true}","You should attempt this problem by yourself","null","null","null","null","true",""
"image-keyboard-response","17","249854","0.0-4.0-2.0","qn3ur87dsephmtc","668048bf23b961683549d089","67b62c430b9240ccd8986e70","67b631c487e7b8e1a3e9d597","1","null","","","null","","","How many ways are there to choose 3 cards from a standard deck of 52 cards, if all three cards must be of different suits? (Assume that the order of the cards does not matter.)","[""8788"",""2"",""2197"",""21""]","C","B","modiste","","A","78","algLinUCB_0.9","diff-topics","high_school_mathematics","The following are multiple choice questions about high_school_mathematics.
Colton and his dad bought a gallon of paint that cost $13. They also bought 2 brushes that cost $9 each. What was the total cost, not including tax, of the brushes and the paint they bought?
(A) $22, (B) $24, (C) $31, (D) $35
Answer: C
Solve for y. y – 2 + 3y = 10
(A) 2, (B) 3, (C) 4, (D) 5
Answer: B
Solve 3 over 2 * w = 66.
(A) 33, (B) 44, (C) 88, (D) 99
Answer: B
Write 5.875 as a mixed number or fraction in simplest form.
(A) 5 and 8 over 9, (B) 5 and 7 over 8, (C) 7 over 8, (D) 5 and 87 over 105
Answer: B
Solve the equation 124 = m + 34.
(A) 158, (B) 90, (C) 88, (D) 4,216
Answer: B
Zelma buys p pounds of bananas for 40 cents per pound. She pays the clerk with a twenty-dollar bill. The clerk subtracts the total cost of the bananas from the twenty-dollar bill to determine the amount of change to give Zelma. Which expression represents the amount of change Zelma should receive?
(A) p - 20, (B) 20 - 40p, (C) 20 - 0.40p, (D) 0.40p - 20
Answer: C
Please answer the following question with just the correct option (A, B, C, or D) without any explanation or additional text.
How many ways are there to choose 3 cards from a standard deck of 52 cards, if all three cards must be of different suits? (Assume that the order of the cards does not matter.)
(A) '8788', (B) '2', (C) '2197', (D) '21'
Answer:","","","","","","","","","","","","","","","","","","","","","","feedback_imgs/Incorrect.png"
"call-function","18","249855","0.0-4.0-0.1","qn3ur87dsephmtc","668048bf23b961683549d089","67b62c430b9240ccd8986e70","67b631c487e7b8e1a3e9d597","1","","","","","","defer","A theater collected 6 for each ticket sold to a movie. The theater sold 500 tickets to the movie. The expression below can be used to find how much money the theater collected for the tickets. 6 × 500 Which expression can also be used to find how much money the theater collected for the tickets?","[""30 × 10^1"",""30 × 10^3"",""(6 × 5) × 10^2"",""(6 × 5) × 10^3""]","C","C","modiste","","C","98","algLinUCB_0.9","diff-topics","elementary_mathematics","The following are multiple choice questions about high_school_mathematics.
Colton and his dad bought a gallon of paint that cost $13. They also bought 2 brushes that cost $9 each. What was the total cost, not including tax, of the brushes and the paint they bought?
(A) $22, (B) $24, (C) $31, (D) $35
Answer: C
Solve for y. y – 2 + 3y = 10
(A) 2, (B) 3, (C) 4, (D) 5
Answer: B
Solve 3 over 2 * w = 66.
(A) 33, (B) 44, (C) 88, (D) 99
Answer: B
Write 5.875 as a mixed number or fraction in simplest form.
(A) 5 and 8 over 9, (B) 5 and 7 over 8, (C) 7 over 8, (D) 5 and 87 over 105
Answer: B
Solve the equation 124 = m + 34.
(A) 158, (B) 90, (C) 88, (D) 4,216
Answer: B
Zelma buys p pounds of bananas for 40 cents per pound. She pays the clerk with a twenty-dollar bill. The clerk subtracts the total cost of the bananas from the twenty-dollar bill to determine the amount of change to give Zelma. Which expression represents the amount of change Zelma should receive?
(A) p - 20, (B) 20 - 40p, (C) 20 - 0.40p, (D) 0.40p - 20
Answer: C
Please answer the following question with just the correct option (A, B, C, or D) without any explanation or additional text.
A theater collected 6 for each ticket sold to a movie. The theater sold 500 tickets to the movie. The expression below can be used to find how much money the theater collected for the tickets. 6 × 500 Which expression can also be used to find how much money the theater collected for the tickets?
(A) '30 × 10^1', (B) '30 × 10^3', (C) '(6 × 5) × 10^2', (D) '(6 × 5) × 10^3'
Answer:","","","","","","","","","","","","","","","","","","","","","",""
"survey-html-form","19","315790","0.0-4.0-1.1","qn3ur87dsephmtc","668048bf23b961683549d089","67b62c430b9240ccd8986e70","67b631c487e7b8e1a3e9d597","1","65932.90000000596","","","{""mcAnswer"":""C""}","","","A theater collected 6 for each ticket sold to a movie. The theater sold 500 tickets to the movie. The expression below can be used to find how much money the theater collected for the tickets. 6 × 500 Which expression can also be used to find how much money the theater collected for the tickets?","[""30 × 10^1"",""30 × 10^3"",""(6 × 5) × 10^2"",""(6 × 5) × 10^3""]","C","C","modiste","","C","98","algLinUCB_0.9","diff-topics","elementary_mathematics","The following are multiple choice questions about high_school_mathematics.
Colton and his dad bought a gallon of paint that cost $13. They also bought 2 brushes that cost $9 each. What was the total cost, not including tax, of the brushes and the paint they bought?
(A) $22, (B) $24, (C) $31, (D) $35
Answer: C
Solve for y. y – 2 + 3y = 10
(A) 2, (B) 3, (C) 4, (D) 5
Answer: B
Solve 3 over 2 * w = 66.
(A) 33, (B) 44, (C) 88, (D) 99
Answer: B
Write 5.875 as a mixed number or fraction in simplest form.
(A) 5 and 8 over 9, (B) 5 and 7 over 8, (C) 7 over 8, (D) 5 and 87 over 105
Answer: B
Solve the equation 124 = m + 34.
(A) 158, (B) 90, (C) 88, (D) 4,216
Answer: B
Zelma buys p pounds of bananas for 40 cents per pound. She pays the clerk with a twenty-dollar bill. The clerk subtracts the total cost of the bananas from the twenty-dollar bill to determine the amount of change to give Zelma. Which expression represents the amount of change Zelma should receive?
(A) p - 20, (B) 20 - 40p, (C) 20 - 0.40p, (D) 0.40p - 20
Answer: C
Please answer the following question with just the correct option (A, B, C, or D) without any explanation or additional text.
A theater collected 6 for each ticket sold to a movie. The theater sold 500 tickets to the movie. The expression below can be used to find how much money the theater collected for the tickets. 6 × 500 Which expression can also be used to find how much money the theater collected for the tickets?
(A) '30 × 10^1', (B) '30 × 10^3', (C) '(6 × 5) × 10^2', (D) '(6 × 5) × 10^3'
Answer:","","","","","","","","","","","","","","","","","","","","","",""
"","","","","","","","","","","","","","","","","","","","","","","","","","","","C","","","","","","","","","","","","","","","","","","","","",""
"","","","","","","","","","","","","","","","","","","","","","","","","","","","","false","110","-1","C","true","true","defer","[]","false","0","false","0","{""elementary_mathematics"":[""40/50"",""31/50"",""5/6""],""high_school_mathematics"":[""27/50"",""22/50"",""3/6""],""college_mathematics"":[""22/50"",""26/50"",""2 / 5""]}","{""high_school_mathematics"":true,""elementary_mathematics"":false}","You should attempt this problem by yourself","null","null","null","null","true",""
"image-keyboard-response","20","317295","0.0-4.0-2.1","qn3ur87dsephmtc","668048bf23b961683549d089","67b62c430b9240ccd8986e70","67b631c487e7b8e1a3e9d597","1","null","","","null","","","A theater collected 6 for each ticket sold to a movie. The theater sold 500 tickets to the movie. The expression below can be used to find how much money the theater collected for the tickets. 6 × 500 Which expression can also be used to find how much money the theater collected for the tickets?","[""30 × 10^1"",""30 × 10^3"",""(6 × 5) × 10^2"",""(6 × 5) × 10^3""]","C","C","modiste","","C","98","algLinUCB_0.9","diff-topics","elementary_mathematics","The following are multiple choice questions about high_school_mathematics.
Colton and his dad bought a gallon of paint that cost $13. They also bought 2 brushes that cost $9 each. What was the total cost, not including tax, of the brushes and the paint they bought?
(A) $22, (B) $24, (C) $31, (D) $35
Answer: C
Solve for y. y – 2 + 3y = 10
(A) 2, (B) 3, (C) 4, (D) 5
Answer: B
Solve 3 over 2 * w = 66.
(A) 33, (B) 44, (C) 88, (D) 99
Answer: B
Write 5.875 as a mixed number or fraction in simplest form.
(A) 5 and 8 over 9, (B) 5 and 7 over 8, (C) 7 over 8, (D) 5 and 87 over 105
Answer: B
Solve the equation 124 = m + 34.
(A) 158, (B) 90, (C) 88, (D) 4,216
Answer: B
Zelma buys p pounds of bananas for 40 cents per pound. She pays the clerk with a twenty-dollar bill. The clerk subtracts the total cost of the bananas from the twenty-dollar bill to determine the amount of change to give Zelma. Which expression represents the amount of change Zelma should receive?
(A) p - 20, (B) 20 - 40p, (C) 20 - 0.40p, (D) 0.40p - 20
Answer: C
Please answer the following question with just the correct option (A, B, C, or D) without any explanation or additional text.
A theater collected 6 for each ticket sold to a movie. The theater sold 500 tickets to the movie. The expression below can be used to find how much money the theater collected for the tickets. 6 × 500 Which expression can also be used to find how much money the theater collected for the tickets?
(A) '30 × 10^1', (B) '30 × 10^3', (C) '(6 × 5) × 10^2', (D) '(6 × 5) × 10^3'
Answer:","","","","","","","","","","","","","","","","","","","","","","feedback_imgs/Correct.png"
"call-function","21","317296","0.0-4.0-0.2","qn3ur87dsephmtc","668048bf23b961683549d089","67b62c430b9240ccd8986e70","67b631c487e7b8e1a3e9d597","1","","","","","","defer","The symbol 5! means 5cdot 4cdot 3cdot 2cdot 1. What is the greatest odd integer that is a factor of 5! ?","[""5"",""3"",""15"",""31""]","C","B","modiste","","C","70","algLinUCB_0.9","diff-topics","high_school_mathematics","The following are multiple choice questions about high_school_mathematics.
Colton and his dad bought a gallon of paint that cost $13. They also bought 2 brushes that cost $9 each. What was the total cost, not including tax, of the brushes and the paint they bought?
(A) $22, (B) $24, (C) $31, (D) $35
Answer: C
Solve for y. y – 2 + 3y = 10
(A) 2, (B) 3, (C) 4, (D) 5
Answer: B
Solve 3 over 2 * w = 66.
(A) 33, (B) 44, (C) 88, (D) 99
Answer: B
Write 5.875 as a mixed number or fraction in simplest form.
(A) 5 and 8 over 9, (B) 5 and 7 over 8, (C) 7 over 8, (D) 5 and 87 over 105
Answer: B
Solve the equation 124 = m + 34.
(A) 158, (B) 90, (C) 88, (D) 4,216
Answer: B
Zelma buys p pounds of bananas for 40 cents per pound. She pays the clerk with a twenty-dollar bill. The clerk subtracts the total cost of the bananas from the twenty-dollar bill to determine the amount of change to give Zelma. Which expression represents the amount of change Zelma should receive?
(A) p - 20, (B) 20 - 40p, (C) 20 - 0.40p, (D) 0.40p - 20
Answer: C
Please answer the following question with just the correct option (A, B, C, or D) without any explanation or additional text.
The symbol 5! means 5cdot 4cdot 3cdot 2cdot 1. What is the greatest odd integer that is a factor of 5! ?
(A) '5', (B) '3', (C) '15', (D) '31'
Answer:","","","","","","","","","","true","2","","","","","","","","","","",""
"survey-html-form","22","358544","0.0-4.0-1.2","qn3ur87dsephmtc","668048bf23b961683549d089","67b62c430b9240ccd8986e70","67b631c487e7b8e1a3e9d597","1","41245.19999998808","","","{""mcAnswer"":""C""}","","","The symbol 5! means 5cdot 4cdot 3cdot 2cdot 1. What is the greatest odd integer that is a factor of 5! ?","[""5"",""3"",""15"",""31""]","C","B","modiste","","C","70","algLinUCB_0.9","diff-topics","high_school_mathematics","The following are multiple choice questions about high_school_mathematics.
Colton and his dad bought a gallon of paint that cost $13. They also bought 2 brushes that cost $9 each. What was the total cost, not including tax, of the brushes and the paint they bought?
(A) $22, (B) $24, (C) $31, (D) $35
Answer: C
Solve for y. y – 2 + 3y = 10
(A) 2, (B) 3, (C) 4, (D) 5
Answer: B
Solve 3 over 2 * w = 66.
(A) 33, (B) 44, (C) 88, (D) 99
Answer: B
Write 5.875 as a mixed number or fraction in simplest form.
(A) 5 and 8 over 9, (B) 5 and 7 over 8, (C) 7 over 8, (D) 5 and 87 over 105
Answer: B
Solve the equation 124 = m + 34.
(A) 158, (B) 90, (C) 88, (D) 4,216
Answer: B
Zelma buys p pounds of bananas for 40 cents per pound. She pays the clerk with a twenty-dollar bill. The clerk subtracts the total cost of the bananas from the twenty-dollar bill to determine the amount of change to give Zelma. Which expression represents the amount of change Zelma should receive?
(A) p - 20, (B) 20 - 40p, (C) 20 - 0.40p, (D) 0.40p - 20
Answer: C
Please answer the following question with just the correct option (A, B, C, or D) without any explanation or additional text.
The symbol 5! means 5cdot 4cdot 3cdot 2cdot 1. What is the greatest odd integer that is a factor of 5! ?
(A) '5', (B) '3', (C) '15', (D) '31'
Answer:","","","","","","","","","","","","","","","","","","","","","",""
"","","","","","","","","","","","","","","","","","","","","","","","","","","","C","","","","","","","","","","","","","","","","","","","","",""
"","","","","","","","","","","","","","","","","","","","","","","","","","","","","false","113","-1","C","true","true","defer","[]","true","2","false","0","{""elementary_mathematics"":[""40/50"",""31/50"",""5/6""],""high_school_mathematics"":[""28/51"",""22/50"",""3/6""],""college_mathematics"":[""22/50"",""26/50"",""2 / 5""]}","{""high_school_mathematics"":false,""elementary_mathematics"":false}","You were wrong by yourself on high_school_mathematics last time. You should outsource this problem to a human agent","null","true","null","true","null",""
"image-keyboard-response","23","360049","0.0-4.0-2.2","qn3ur87dsephmtc","668048bf23b961683549d089","67b62c430b9240ccd8986e70","67b631c487e7b8e1a3e9d597","1","null","","","null","","","The symbol 5! means 5cdot 4cdot 3cdot 2cdot 1. What is the greatest odd integer that is a factor of 5! ?","[""5"",""3"",""15"",""31""]","C","B","modiste","","C","70","algLinUCB_0.9","diff-topics","high_school_mathematics","The following are multiple choice questions about high_school_mathematics.
Colton and his dad bought a gallon of paint that cost $13. They also bought 2 brushes that cost $9 each. What was the total cost, not including tax, of the brushes and the paint they bought?
(A) $22, (B) $24, (C) $31, (D) $35
Answer: C
Solve for y. y – 2 + 3y = 10
(A) 2, (B) 3, (C) 4, (D) 5
Answer: B
Solve 3 over 2 * w = 66.
(A) 33, (B) 44, (C) 88, (D) 99
Answer: B
Write 5.875 as a mixed number or fraction in simplest form.
(A) 5 and 8 over 9, (B) 5 and 7 over 8, (C) 7 over 8, (D) 5 and 87 over 105
Answer: B
Solve the equation 124 = m + 34.
(A) 158, (B) 90, (C) 88, (D) 4,216
Answer: B
Zelma buys p pounds of bananas for 40 cents per pound. She pays the clerk with a twenty-dollar bill. The clerk subtracts the total cost of the bananas from the twenty-dollar bill to determine the amount of change to give Zelma. Which expression represents the amount of change Zelma should receive?
(A) p - 20, (B) 20 - 40p, (C) 20 - 0.40p, (D) 0.40p - 20
Answer: C
Please answer the following question with just the correct option (A, B, C, or D) without any explanation or additional text.
The symbol 5! means 5cdot 4cdot 3cdot 2cdot 1. What is the greatest odd integer that is a factor of 5! ?
(A) '5', (B) '3', (C) '15', (D) '31'
Answer:","","","","","","","","","","","","","","","","","","","","","","feedback_imgs/Correct.png"
"call-function","24","360050","0.0-4.0-0.3","qn3ur87dsephmtc","668048bf23b961683549d089","67b62c430b9240ccd8986e70","67b631c487e7b8e1a3e9d597","1","","","","","","defer","Statement 1 | Suppose {s_n} and {t_n} are sequences of complex numbers such that lim_n→∞ s_n = s and lim_n→∞ tn = t. lim_n→∞ s_nt_n = st. Statement 2 | There exists a bounded sequence of real numbers with no convergent subsequence.","[""True, True"",""True, False"",""False, True"",""False, False""]","B","A","modiste","","B","104","algLinUCB_0.9","diff-topics","college_mathematics","The following are multiple choice questions about high_school_mathematics.
Colton and his dad bought a gallon of paint that cost $13. They also bought 2 brushes that cost $9 each. What was the total cost, not including tax, of the brushes and the paint they bought?
(A) $22, (B) $24, (C) $31, (D) $35
Answer: C
Solve for y. y – 2 + 3y = 10
(A) 2, (B) 3, (C) 4, (D) 5
Answer: B
Solve 3 over 2 * w = 66.
(A) 33, (B) 44, (C) 88, (D) 99
Answer: B
Write 5.875 as a mixed number or fraction in simplest form.
(A) 5 and 8 over 9, (B) 5 and 7 over 8, (C) 7 over 8, (D) 5 and 87 over 105
Answer: B
Solve the equation 124 = m + 34.
(A) 158, (B) 90, (C) 88, (D) 4,216
Answer: B
Zelma buys p pounds of bananas for 40 cents per pound. She pays the clerk with a twenty-dollar bill. The clerk subtracts the total cost of the bananas from the twenty-dollar bill to determine the amount of change to give Zelma. Which expression represents the amount of change Zelma should receive?
(A) p - 20, (B) 20 - 40p, (C) 20 - 0.40p, (D) 0.40p - 20
Answer: C
Please answer the following question with just the correct option (A, B, C, or D) without any explanation or additional text.
Statement 1 | Suppose {s_n} and {t_n} are sequences of complex numbers such that lim_n→∞ s_n = s and lim_n→∞ tn = t. lim_n→∞ s_nt_n = st. Statement 2 | There exists a bounded sequence of real numbers with no convergent subsequence.
(A) 'True, True', (B) 'True, False', (C) 'False, True', (D) 'False, False'
Answer:","","","","","","","","","","","","true","2","","","","","","","","",""
"survey-html-form","25","376084","0.0-4.0-1.3","qn3ur87dsephmtc","668048bf23b961683549d089","67b62c430b9240ccd8986e70","67b631c487e7b8e1a3e9d597","1","16030.09999999404","","","{""mcAnswer"":""B""}","","","Statement 1 | Suppose {s_n} and {t_n} are sequences of complex numbers such that lim_n→∞ s_n = s and lim_n→∞ tn = t. lim_n→∞ s_nt_n = st. Statement 2 | There exists a bounded sequence of real numbers with no convergent subsequence.","[""True, True"",""True, False"",""False, True"",""False, False""]","B","A","modiste","","B","104","algLinUCB_0.9","diff-topics","college_mathematics","The following are multiple choice questions about high_school_mathematics.
Colton and his dad bought a gallon of paint that cost $13. They also bought 2 brushes that cost $9 each. What was the total cost, not including tax, of the brushes and the paint they bought?
(A) $22, (B) $24, (C) $31, (D) $35
Answer: C
Solve for y. y – 2 + 3y = 10
(A) 2, (B) 3, (C) 4, (D) 5
Answer: B
Solve 3 over 2 * w = 66.
(A) 33, (B) 44, (C) 88, (D) 99
Answer: B
Write 5.875 as a mixed number or fraction in simplest form.
(A) 5 and 8 over 9, (B) 5 and 7 over 8, (C) 7 over 8, (D) 5 and 87 over 105
Answer: B
Solve the equation 124 = m + 34.
(A) 158, (B) 90, (C) 88, (D) 4,216
Answer: B
Zelma buys p pounds of bananas for 40 cents per pound. She pays the clerk with a twenty-dollar bill. The clerk subtracts the total cost of the bananas from the twenty-dollar bill to determine the amount of change to give Zelma. Which expression represents the amount of change Zelma should receive?
(A) p - 20, (B) 20 - 40p, (C) 20 - 0.40p, (D) 0.40p - 20
Answer: C
Please answer the following question with just the correct option (A, B, C, or D) without any explanation or additional text.
Statement 1 | Suppose {s_n} and {t_n} are sequences of complex numbers such that lim_n→∞ s_n = s and lim_n→∞ tn = t. lim_n→∞ s_nt_n = st. Statement 2 | There exists a bounded sequence of real numbers with no convergent subsequence.
(A) 'True, True', (B) 'True, False', (C) 'False, True', (D) 'False, False'
Answer:","","","","","","","","","","","","","","","","","","","","","",""
"","","","","","","","","","","","","","","","","","","","","","","","","","","","B","","","","","","","","","","","","","","","","","","","","",""
"","","","","","","","","","","","","","","","","","","","","","","","","","","","","false","120","-1","B","true","true","defer","[]","false","0","true","2","{""elementary_mathematics"":[""40/50"",""31/50"",""5/6""],""high_school_mathematics"":[""28/51"",""22/50"",""3/6""],""college_mathematics"":[""22/50"",""27/51"",""2 / 5""]}","{""high_school_mathematics"":false,""elementary_mathematics"":false,""college_mathematics"":false}","You should outsource this problem to the AI agent","false","null","true","null","null",""
"image-keyboard-response","26","377588","0.0-4.0-2.3","qn3ur87dsephmtc","668048bf23b961683549d089","67b62c430b9240ccd8986e70","67b631c487e7b8e1a3e9d597","1","null","","","null","","","Statement 1 | Suppose {s_n} and {t_n} are sequences of complex numbers such that lim_n→∞ s_n = s and lim_n→∞ tn = t. lim_n→∞ s_nt_n = st. Statement 2 | There exists a bounded sequence of real numbers with no convergent subsequence.","[""True, True"",""True, False"",""False, True"",""False, False""]","B","A","modiste","","B","104","algLinUCB_0.9","diff-topics","college_mathematics","The following are multiple choice questions about high_school_mathematics.
Colton and his dad bought a gallon of paint that cost $13. They also bought 2 brushes that cost $9 each. What was the total cost, not including tax, of the brushes and the paint they bought?
(A) $22, (B) $24, (C) $31, (D) $35
Answer: C
Solve for y. y – 2 + 3y = 10
(A) 2, (B) 3, (C) 4, (D) 5
Answer: B
Solve 3 over 2 * w = 66.
(A) 33, (B) 44, (C) 88, (D) 99
Answer: B
Write 5.875 as a mixed number or fraction in simplest form.
(A) 5 and 8 over 9, (B) 5 and 7 over 8, (C) 7 over 8, (D) 5 and 87 over 105
Answer: B
Solve the equation 124 = m + 34.
(A) 158, (B) 90, (C) 88, (D) 4,216
Answer: B
Zelma buys p pounds of bananas for 40 cents per pound. She pays the clerk with a twenty-dollar bill. The clerk subtracts the total cost of the bananas from the twenty-dollar bill to determine the amount of change to give Zelma. Which expression represents the amount of change Zelma should receive?
(A) p - 20, (B) 20 - 40p, (C) 20 - 0.40p, (D) 0.40p - 20
Answer: C
Please answer the following question with just the correct option (A, B, C, or D) without any explanation or additional text.
Statement 1 | Suppose {s_n} and {t_n} are sequences of complex numbers such that lim_n→∞ s_n = s and lim_n→∞ tn = t. lim_n→∞ s_nt_n = st. Statement 2 | There exists a bounded sequence of real numbers with no convergent subsequence.
(A) 'True, True', (B) 'True, False', (C) 'False, True', (D) 'False, False'
Answer:","","","","","","","","","","","","","","","","","","","","","","feedback_imgs/Correct.png"
"call-function","27","377589","0.0-4.0-0.4","qn3ur87dsephmtc","668048bf23b961683549d089","67b62c430b9240ccd8986e70","67b631c487e7b8e1a3e9d597","1","","","","","","defer","Abe found the mean and median of this list of numbers. 1, 3, 3 If the number 6 were added to the list, then","[""the mean would increase."",""the mean would decrease."",""the median would increase."",""the median would decrease.""]","C","A","modiste","","A","95","algLinUCB_0.9","diff-topics","elementary_mathematics","The following are multiple choice questions about high_school_mathematics.
Colton and his dad bought a gallon of paint that cost $13. They also bought 2 brushes that cost $9 each. What was the total cost, not including tax, of the brushes and the paint they bought?
(A) $22, (B) $24, (C) $31, (D) $35
Answer: C
Solve for y. y – 2 + 3y = 10
(A) 2, (B) 3, (C) 4, (D) 5
Answer: B
Solve 3 over 2 * w = 66.
(A) 33, (B) 44, (C) 88, (D) 99
Answer: B
Write 5.875 as a mixed number or fraction in simplest form.
(A) 5 and 8 over 9, (B) 5 and 7 over 8, (C) 7 over 8, (D) 5 and 87 over 105
Answer: B
Solve the equation 124 = m + 34.
(A) 158, (B) 90, (C) 88, (D) 4,216
Answer: B
Zelma buys p pounds of bananas for 40 cents per pound. She pays the clerk with a twenty-dollar bill. The clerk subtracts the total cost of the bananas from the twenty-dollar bill to determine the amount of change to give Zelma. Which expression represents the amount of change Zelma should receive?
(A) p - 20, (B) 20 - 40p, (C) 20 - 0.40p, (D) 0.40p - 20
Answer: C
Please answer the following question with just the correct option (A, B, C, or D) without any explanation or additional text.
Abe found the mean and median of this list of numbers. 1, 3, 3 If the number 6 were added to the list, then
(A) 'the mean would increase.', (B) 'the mean would decrease.', (C) 'the median would increase.', (D) 'the median would decrease.'
Answer:","","","","","","","","","","","","","","","","","","","","","",""
"survey-html-form","28","433538","0.0-4.0-1.4","qn3ur87dsephmtc","668048bf23b961683549d089","67b62c430b9240ccd8986e70","67b631c487e7b8e1a3e9d597","1","55946.30000001192","","","{""mcAnswer"":""A""}","","","Abe found the mean and median of this list of numbers. 1, 3, 3 If the number 6 were added to the list, then","[""the mean would increase."",""the mean would decrease."",""the median would increase."",""the median would decrease.""]","C","A","modiste","","A","95","algLinUCB_0.9","diff-topics","elementary_mathematics","The following are multiple choice questions about high_school_mathematics.
Colton and his dad bought a gallon of paint that cost $13. They also bought 2 brushes that cost $9 each. What was the total cost, not including tax, of the brushes and the paint they bought?
(A) $22, (B) $24, (C) $31, (D) $35
Answer: C
Solve for y. y – 2 + 3y = 10
(A) 2, (B) 3, (C) 4, (D) 5
Answer: B
Solve 3 over 2 * w = 66.
(A) 33, (B) 44, (C) 88, (D) 99
Answer: B
Write 5.875 as a mixed number or fraction in simplest form.
(A) 5 and 8 over 9, (B) 5 and 7 over 8, (C) 7 over 8, (D) 5 and 87 over 105
Answer: B
Solve the equation 124 = m + 34.
(A) 158, (B) 90, (C) 88, (D) 4,216
Answer: B
Zelma buys p pounds of bananas for 40 cents per pound. She pays the clerk with a twenty-dollar bill. The clerk subtracts the total cost of the bananas from the twenty-dollar bill to determine the amount of change to give Zelma. Which expression represents the amount of change Zelma should receive?
(A) p - 20, (B) 20 - 40p, (C) 20 - 0.40p, (D) 0.40p - 20
Answer: C
Please answer the following question with just the correct option (A, B, C, or D) without any explanation or additional text.
Abe found the mean and median of this list of numbers. 1, 3, 3 If the number 6 were added to the list, then
(A) 'the mean would increase.', (B) 'the mean would decrease.', (C) 'the median would increase.', (D) 'the median would decrease.'
Answer:","","","","","","","","","","","","","","","","","","","","","",""
"","","","","","","","","","","","","","","","","","","","","","","","","","","","A","","","","","","","","","","","","","","","","","","","","",""
"","","","","","","","","","","","","","","","","","","","","","","","","","","","","false","130","-1","C","true","false","defer","[]","false","0","false","0","{""elementary_mathematics"":[""40/50"",""31/50"",""6/7""],""high_school_mathematics"":[""28/51"",""22/50"",""3/6""],""college_mathematics"":[""22/50"",""27/51"",""2 / 5""]}","{""high_school_mathematics"":false,""elementary_mathematics"":false,""college_mathematics"":false}","You should attempt this problem by yourself","null","null","null","null","true",""
"image-keyboard-response","29","435043","0.0-4.0-2.4","qn3ur87dsephmtc","668048bf23b961683549d089","67b62c430b9240ccd8986e70","67b631c487e7b8e1a3e9d597","1","null","","","null","","","Abe found the mean and median of this list of numbers. 1, 3, 3 If the number 6 were added to the list, then","[""the mean would increase."",""the mean would decrease."",""the median would increase."",""the median would decrease.""]","C","A","modiste","","A","95","algLinUCB_0.9","diff-topics","elementary_mathematics","The following are multiple choice questions about high_school_mathematics.
Colton and his dad bought a gallon of paint that cost $13. They also bought 2 brushes that cost $9 each. What was the total cost, not including tax, of the brushes and the paint they bought?
(A) $22, (B) $24, (C) $31, (D) $35
Answer: C
Solve for y. y – 2 + 3y = 10
(A) 2, (B) 3, (C) 4, (D) 5
Answer: B
Solve 3 over 2 * w = 66.
(A) 33, (B) 44, (C) 88, (D) 99
Answer: B
Write 5.875 as a mixed number or fraction in simplest form.
(A) 5 and 8 over 9, (B) 5 and 7 over 8, (C) 7 over 8, (D) 5 and 87 over 105
Answer: B
Solve the equation 124 = m + 34.
(A) 158, (B) 90, (C) 88, (D) 4,216
Answer: B
Zelma buys p pounds of bananas for 40 cents per pound. She pays the clerk with a twenty-dollar bill. The clerk subtracts the total cost of the bananas from the twenty-dollar bill to determine the amount of change to give Zelma. Which expression represents the amount of change Zelma should receive?
(A) p - 20, (B) 20 - 40p, (C) 20 - 0.40p, (D) 0.40p - 20
Answer: C
Please answer the following question with just the correct option (A, B, C, or D) without any explanation or additional text.
Abe found the mean and median of this list of numbers. 1, 3, 3 If the number 6 were added to the list, then
(A) 'the mean would increase.', (B) 'the mean would decrease.', (C) 'the median would increase.', (D) 'the median would decrease.'
Answer:","","","","","","","","","","","","","","","","","","","","","","feedback_imgs/Correct.png"
"call-function","30","435044","0.0-4.0-0.5","qn3ur87dsephmtc","668048bf23b961683549d089","67b62c430b9240ccd8986e70","67b631c487e7b8e1a3e9d597","1","","","","","","defer","Identify a solution for the equation x + 2.7 = 8.4 from the given numbers.","[""11.1"",""5.7"",""3.7"",""22.68""]","B","B","modiste","","B","84","algLinUCB_0.9","diff-topics","elementary_mathematics","The following are multiple choice questions about high_school_mathematics.
Colton and his dad bought a gallon of paint that cost $13. They also bought 2 brushes that cost $9 each. What was the total cost, not including tax, of the brushes and the paint they bought?
(A) $22, (B) $24, (C) $31, (D) $35
Answer: C
Solve for y. y – 2 + 3y = 10
(A) 2, (B) 3, (C) 4, (D) 5
Answer: B
Solve 3 over 2 * w = 66.
(A) 33, (B) 44, (C) 88, (D) 99
Answer: B
Write 5.875 as a mixed number or fraction in simplest form.
(A) 5 and 8 over 9, (B) 5 and 7 over 8, (C) 7 over 8, (D) 5 and 87 over 105
Answer: B
Solve the equation 124 = m + 34.
(A) 158, (B) 90, (C) 88, (D) 4,216
Answer: B
Zelma buys p pounds of bananas for 40 cents per pound. She pays the clerk with a twenty-dollar bill. The clerk subtracts the total cost of the bananas from the twenty-dollar bill to determine the amount of change to give Zelma. Which expression represents the amount of change Zelma should receive?
(A) p - 20, (B) 20 - 40p, (C) 20 - 0.40p, (D) 0.40p - 20
Answer: C
Please answer the following question with just the correct option (A, B, C, or D) without any explanation or additional text.
Identify a solution for the equation x + 2.7 = 8.4 from the given numbers.
(A) '11.1', (B) '5.7', (C) '3.7', (D) '22.68'
Answer:","","","","","","","","","","","","","","","","","","","","","",""
"survey-html-form","31","452035","0.0-4.0-1.5","qn3ur87dsephmtc","668048bf23b961683549d089","67b62c430b9240ccd8986e70","67b631c487e7b8e1a3e9d597","1","16987.20000001788","","","{""mcAnswer"":""B""}","","","Identify a solution for the equation x + 2.7 = 8.4 from the given numbers.","[""11.1"",""5.7"",""3.7"",""22.68""]","B","B","modiste","","B","84","algLinUCB_0.9","diff-topics","elementary_mathematics","The following are multiple choice questions about high_school_mathematics.
Colton and his dad bought a gallon of paint that cost $13. They also bought 2 brushes that cost $9 each. What was the total cost, not including tax, of the brushes and the paint they bought?
(A) $22, (B) $24, (C) $31, (D) $35
Answer: C
Solve for y. y – 2 + 3y = 10
(A) 2, (B) 3, (C) 4, (D) 5
Answer: B
Solve 3 over 2 * w = 66.
(A) 33, (B) 44, (C) 88, (D) 99
Answer: B
Write 5.875 as a mixed number or fraction in simplest form.
(A) 5 and 8 over 9, (B) 5 and 7 over 8, (C) 7 over 8, (D) 5 and 87 over 105
Answer: B
Solve the equation 124 = m + 34.
(A) 158, (B) 90, (C) 88, (D) 4,216
Answer: B
Zelma buys p pounds of bananas for 40 cents per pound. She pays the clerk with a twenty-dollar bill. The clerk subtracts the total cost of the bananas from the twenty-dollar bill to determine the amount of change to give Zelma. Which expression represents the amount of change Zelma should receive?
(A) p - 20, (B) 20 - 40p, (C) 20 - 0.40p, (D) 0.40p - 20
Answer: C
Please answer the following question with just the correct option (A, B, C, or D) without any explanation or additional text.
Identify a solution for the equation x + 2.7 = 8.4 from the given numbers.
(A) '11.1', (B) '5.7', (C) '3.7', (D) '22.68'
Answer:","","","","","","","","","","","","","","","","","","","","","",""
"","","","","","","","","","","","","","","","","","","","","","","","","","","","B","","","","","","","","","","","","","","","","","","","","",""
"","","","","","","","","","","","","","","","","","","","","","","","","","","","","false","140","-1","B","true","true","defer","[]","false","0","false","0","{""elementary_mathematics"":[""40/50"",""31/50"",""7/8""],""high_school_mathematics"":[""28/51"",""22/50"",""3/6""],""college_mathematics"":[""22/50"",""27/51"",""2 / 5""]}","{""high_school_mathematics"":false,""elementary_mathematics"":false,""college_mathematics"":false}","You should attempt this problem by yourself","null","null","null","null","true",""
"image-keyboard-response","32","453540","0.0-4.0-2.5","qn3ur87dsephmtc","668048bf23b961683549d089","67b62c430b9240ccd8986e70","67b631c487e7b8e1a3e9d597","1","null","","","null","","","Identify a solution for the equation x + 2.7 = 8.4 from the given numbers.","[""11.1"",""5.7"",""3.7"",""22.68""]","B","B","modiste","","B","84","algLinUCB_0.9","diff-topics","elementary_mathematics","The following are multiple choice questions about high_school_mathematics.
Colton and his dad bought a gallon of paint that cost $13. They also bought 2 brushes that cost $9 each. What was the total cost, not including tax, of the brushes and the paint they bought?
(A) $22, (B) $24, (C) $31, (D) $35
Answer: C
Solve for y. y – 2 + 3y = 10
(A) 2, (B) 3, (C) 4, (D) 5
Answer: B
Solve 3 over 2 * w = 66.
(A) 33, (B) 44, (C) 88, (D) 99
Answer: B
Write 5.875 as a mixed number or fraction in simplest form.
(A) 5 and 8 over 9, (B) 5 and 7 over 8, (C) 7 over 8, (D) 5 and 87 over 105
Answer: B
Solve the equation 124 = m + 34.
(A) 158, (B) 90, (C) 88, (D) 4,216
Answer: B
Zelma buys p pounds of bananas for 40 cents per pound. She pays the clerk with a twenty-dollar bill. The clerk subtracts the total cost of the bananas from the twenty-dollar bill to determine the amount of change to give Zelma. Which expression represents the amount of change Zelma should receive?
(A) p - 20, (B) 20 - 40p, (C) 20 - 0.40p, (D) 0.40p - 20
Answer: C
Please answer the following question with just the correct option (A, B, C, or D) without any explanation or additional text.
Identify a solution for the equation x + 2.7 = 8.4 from the given numbers.
(A) '11.1', (B) '5.7', (C) '3.7', (D) '22.68'
Answer:","","","","","","","","","","","","","","","","","","","","","","feedback_imgs/Correct.png"
"call-function","33","453540","0.0-4.0-0.6","qn3ur87dsephmtc","668048bf23b961683549d089","67b62c430b9240ccd8986e70","67b631c487e7b8e1a3e9d597","1","","","","","","defer","What is the inverse of f(x)=4-5x?","[""5/x-4"",""x-4/5"",""x+4/5"",""-x-4/5""]","B","D","modiste","","D","65","algLinUCB_0.9","diff-topics","high_school_mathematics","The following are multiple choice questions about high_school_mathematics.
Colton and his dad bought a gallon of paint that cost $13. They also bought 2 brushes that cost $9 each. What was the total cost, not including tax, of the brushes and the paint they bought?
(A) $22, (B) $24, (C) $31, (D) $35
Answer: C
Solve for y. y – 2 + 3y = 10
(A) 2, (B) 3, (C) 4, (D) 5
Answer: B
Solve 3 over 2 * w = 66.
(A) 33, (B) 44, (C) 88, (D) 99
Answer: B
Write 5.875 as a mixed number or fraction in simplest form.
(A) 5 and 8 over 9, (B) 5 and 7 over 8, (C) 7 over 8, (D) 5 and 87 over 105
Answer: B
Solve the equation 124 = m + 34.
(A) 158, (B) 90, (C) 88, (D) 4,216
Answer: B
Zelma buys p pounds of bananas for 40 cents per pound. She pays the clerk with a twenty-dollar bill. The clerk subtracts the total cost of the bananas from the twenty-dollar bill to determine the amount of change to give Zelma. Which expression represents the amount of change Zelma should receive?
(A) p - 20, (B) 20 - 40p, (C) 20 - 0.40p, (D) 0.40p - 20
Answer: C
Please answer the following question with just the correct option (A, B, C, or D) without any explanation or additional text.
What is the inverse of f(x)=4-5x?
(A) '5/x-4', (B) 'x-4/5', (C) 'x+4/5', (D) '-x-4/5'
Answer:","","","","","","","","","","true","2","","","","","","","","","","",""
"survey-html-form","34","480420","0.0-4.0-1.6","qn3ur87dsephmtc","668048bf23b961683549d089","67b62c430b9240ccd8986e70","67b631c487e7b8e1a3e9d597","1","26878.29999998212","","","{""mcAnswer"":""D""}","","","What is the inverse of f(x)=4-5x?","[""5/x-4"",""x-4/5"",""x+4/5"",""-x-4/5""]","B","D","modiste","","D","65","algLinUCB_0.9","diff-topics","high_school_mathematics","The following are multiple choice questions about high_school_mathematics.
Colton and his dad bought a gallon of paint that cost $13. They also bought 2 brushes that cost $9 each. What was the total cost, not including tax, of the brushes and the paint they bought?
(A) $22, (B) $24, (C) $31, (D) $35
Answer: C
Solve for y. y – 2 + 3y = 10
(A) 2, (B) 3, (C) 4, (D) 5
Answer: B
Solve 3 over 2 * w = 66.
(A) 33, (B) 44, (C) 88, (D) 99
Answer: B
Write 5.875 as a mixed number or fraction in simplest form.
(A) 5 and 8 over 9, (B) 5 and 7 over 8, (C) 7 over 8, (D) 5 and 87 over 105
Answer: B
Solve the equation 124 = m + 34.
(A) 158, (B) 90, (C) 88, (D) 4,216
Answer: B
Zelma buys p pounds of bananas for 40 cents per pound. She pays the clerk with a twenty-dollar bill. The clerk subtracts the total cost of the bananas from the twenty-dollar bill to determine the amount of change to give Zelma. Which expression represents the amount of change Zelma should receive?
(A) p - 20, (B) 20 - 40p, (C) 20 - 0.40p, (D) 0.40p - 20
Answer: C
Please answer the following question with just the correct option (A, B, C, or D) without any explanation or additional text.
What is the inverse of f(x)=4-5x?
(A) '5/x-4', (B) 'x-4/5', (C) 'x+4/5', (D) '-x-4/5'
Answer:","","","","","","","","","","","","","","","","","","","","","",""
"","","","","","","","","","","","","","","","","","","","","","","","","","","","D","","","","","","","","","","","","","","","","","","","","",""
"","","","","","","","","","","","","","","","","","","","","","","","","","","","","false","143","-1","B","true","false","defer","[]","true","2","false","0","{""elementary_mathematics"":[""40/50"",""31/50"",""7/8""],""high_school_mathematics"":[""29/52"",""22/50"",""3/6""],""college_mathematics"":[""22/50"",""27/51"",""2 / 5""]}","{""high_school_mathematics"":false,""elementary_mathematics"":false,""college_mathematics"":false}","You should outsource this problem to a human agent","null","false","null","true","null",""
"image-keyboard-response","35","481924","0.0-4.0-2.6","qn3ur87dsephmtc","668048bf23b961683549d089","67b62c430b9240ccd8986e70","67b631c487e7b8e1a3e9d597","1","null","","","null","","","What is the inverse of f(x)=4-5x?","[""5/x-4"",""x-4/5"",""x+4/5"",""-x-4/5""]","B","D","modiste","","D","65","algLinUCB_0.9","diff-topics","high_school_mathematics","The following are multiple choice questions about high_school_mathematics.
Colton and his dad bought a gallon of paint that cost $13. They also bought 2 brushes that cost $9 each. What was the total cost, not including tax, of the brushes and the paint they bought?
(A) $22, (B) $24, (C) $31, (D) $35
Answer: C
Solve for y. y – 2 + 3y = 10
(A) 2, (B) 3, (C) 4, (D) 5
Answer: B
Solve 3 over 2 * w = 66.
(A) 33, (B) 44, (C) 88, (D) 99
Answer: B
Write 5.875 as a mixed number or fraction in simplest form.
(A) 5 and 8 over 9, (B) 5 and 7 over 8, (C) 7 over 8, (D) 5 and 87 over 105
Answer: B
Solve the equation 124 = m + 34.
(A) 158, (B) 90, (C) 88, (D) 4,216
Answer: B
Zelma buys p pounds of bananas for 40 cents per pound. She pays the clerk with a twenty-dollar bill. The clerk subtracts the total cost of the bananas from the twenty-dollar bill to determine the amount of change to give Zelma. Which expression represents the amount of change Zelma should receive?
(A) p - 20, (B) 20 - 40p, (C) 20 - 0.40p, (D) 0.40p - 20
Answer: C
Please answer the following question with just the correct option (A, B, C, or D) without any explanation or additional text.
What is the inverse of f(x)=4-5x?
(A) '5/x-4', (B) 'x-4/5', (C) 'x+4/5', (D) '-x-4/5'
Answer:","","","","","","","","","","","","","","","","","","","","","","feedback_imgs/Correct.png"
"call-function","36","481925","0.0-4.0-0.7","qn3ur87dsephmtc","668048bf23b961683549d089","67b62c430b9240ccd8986e70","67b631c487e7b8e1a3e9d597","1","","","","","","defer","Suppose A and B are n x n invertible matrices, where n > 1, and I is the n x n identity matrix. If A and B are similar matrices, which of the following statements must be true?	I. A - 2I and B - 2I are similar matrices. II. A and B have the same trace.	 III. A^-1 and B^-1 are similar matrices.","[""I only"",""II only"",""III only"",""I, II, and III""]","D","C","modiste","","D","114","algLinUCB_0.9","diff-topics","college_mathematics","The following are multiple choice questions about high_school_mathematics.
Colton and his dad bought a gallon of paint that cost $13. They also bought 2 brushes that cost $9 each. What was the total cost, not including tax, of the brushes and the paint they bought?
(A) $22, (B) $24, (C) $31, (D) $35
Answer: C
Solve for y. y – 2 + 3y = 10
(A) 2, (B) 3, (C) 4, (D) 5
Answer: B
Solve 3 over 2 * w = 66.
(A) 33, (B) 44, (C) 88, (D) 99
Answer: B
Write 5.875 as a mixed number or fraction in simplest form.
(A) 5 and 8 over 9, (B) 5 and 7 over 8, (C) 7 over 8, (D) 5 and 87 over 105
Answer: B
Solve the equation 124 = m + 34.
(A) 158, (B) 90, (C) 88, (D) 4,216
Answer: B
Zelma buys p pounds of bananas for 40 cents per pound. She pays the clerk with a twenty-dollar bill. The clerk subtracts the total cost of the bananas from the twenty-dollar bill to determine the amount of change to give Zelma. Which expression represents the amount of change Zelma should receive?
(A) p - 20, (B) 20 - 40p, (C) 20 - 0.40p, (D) 0.40p - 20
Answer: C
Please answer the following question with just the correct option (A, B, C, or D) without any explanation or additional text.
Suppose A and B are n x n invertible matrices, where n > 1, and I is the n x n identity matrix. If A and B are similar matrices, which of the following statements must be true?	I. A - 2I and B - 2I are similar matrices. II. A and B have the same trace.	 III. A^-1 and B^-1 are similar matrices.
(A) 'I only', (B) 'II only', (C) 'III only', (D) 'I, II, and III'
Answer:","","","","","","","","","","","","true","2","","","","","","","","",""
"survey-html-form","37","495407","0.0-4.0-1.7","qn3ur87dsephmtc","668048bf23b961683549d089","67b62c430b9240ccd8986e70","67b631c487e7b8e1a3e9d597","1","13477.59999999404","","","{""mcAnswer"":""D""}","","","Suppose A and B are n x n invertible matrices, where n > 1, and I is the n x n identity matrix. If A and B are similar matrices, which of the following statements must be true?	I. A - 2I and B - 2I are similar matrices. II. A and B have the same trace.	 III. A^-1 and B^-1 are similar matrices.","[""I only"",""II only"",""III only"",""I, II, and III""]","D","C","modiste","","D","114","algLinUCB_0.9","diff-topics","college_mathematics","The following are multiple choice questions about high_school_mathematics.
Colton and his dad bought a gallon of paint that cost $13. They also bought 2 brushes that cost $9 each. What was the total cost, not including tax, of the brushes and the paint they bought?
(A) $22, (B) $24, (C) $31, (D) $35
Answer: C
Solve for y. y – 2 + 3y = 10
(A) 2, (B) 3, (C) 4, (D) 5
Answer: B
Solve 3 over 2 * w = 66.
(A) 33, (B) 44, (C) 88, (D) 99
Answer: B
Write 5.875 as a mixed number or fraction in simplest form.
(A) 5 and 8 over 9, (B) 5 and 7 over 8, (C) 7 over 8, (D) 5 and 87 over 105
Answer: B
Solve the equation 124 = m + 34.
(A) 158, (B) 90, (C) 88, (D) 4,216
Answer: B
Zelma buys p pounds of bananas for 40 cents per pound. She pays the clerk with a twenty-dollar bill. The clerk subtracts the total cost of the bananas from the twenty-dollar bill to determine the amount of change to give Zelma. Which expression represents the amount of change Zelma should receive?
(A) p - 20, (B) 20 - 40p, (C) 20 - 0.40p, (D) 0.40p - 20
Answer: C
Please answer the following question with just the correct option (A, B, C, or D) without any explanation or additional text.
Suppose A and B are n x n invertible matrices, where n > 1, and I is the n x n identity matrix. If A and B are similar matrices, which of the following statements must be true?	I. A - 2I and B - 2I are similar matrices. II. A and B have the same trace.	 III. A^-1 and B^-1 are similar matrices.
(A) 'I only', (B) 'II only', (C) 'III only', (D) 'I, II, and III'
Answer:","","","","","","","","","","","","","","","","","","","","","",""
"","","","","","","","","","","","","","","","","","","","","","","","","","","","D","","","","","","","","","","","","","","","","","","","","",""
"","","","","","","","","","","","","","","","","","","","","","","","","","","","","false","150","-1","D","true","true","defer","[]","false","0","true","2","{""elementary_mathematics"":[""40/50"",""31/50"",""7/8""],""high_school_mathematics"":[""29/52"",""22/50"",""3/6""],""college_mathematics"":[""22/50"",""28/52"",""2 / 5""]}","{""high_school_mathematics"":false,""elementary_mathematics"":false,""college_mathematics"":false}","You should outsource this problem to the AI agent","false","null","true","null","null",""
"image-keyboard-response","38","496911","0.0-4.0-2.7","qn3ur87dsephmtc","668048bf23b961683549d089","67b62c430b9240ccd8986e70","67b631c487e7b8e1a3e9d597","1","null","","","null","","","Suppose A and B are n x n invertible matrices, where n > 1, and I is the n x n identity matrix. If A and B are similar matrices, which of the following statements must be true?	I. A - 2I and B - 2I are similar matrices. II. A and B have the same trace.	 III. A^-1 and B^-1 are similar matrices.","[""I only"",""II only"",""III only"",""I, II, and III""]","D","C","modiste","","D","114","algLinUCB_0.9","diff-topics","college_mathematics","The following are multiple choice questions about high_school_mathematics.
Colton and his dad bought a gallon of paint that cost $13. They also bought 2 brushes that cost $9 each. What was the total cost, not including tax, of the brushes and the paint they bought?
(A) $22, (B) $24, (C) $31, (D) $35
Answer: C
Solve for y. y – 2 + 3y = 10
(A) 2, (B) 3, (C) 4, (D) 5
Answer: B
Solve 3 over 2 * w = 66.
(A) 33, (B) 44, (C) 88, (D) 99
Answer: B
Write 5.875 as a mixed number or fraction in simplest form.
(A) 5 and 8 over 9, (B) 5 and 7 over 8, (C) 7 over 8, (D) 5 and 87 over 105
Answer: B
Solve the equation 124 = m + 34.
(A) 158, (B) 90, (C) 88, (D) 4,216
Answer: B
Zelma buys p pounds of bananas for 40 cents per pound. She pays the clerk with a twenty-dollar bill. The clerk subtracts the total cost of the bananas from the twenty-dollar bill to determine the amount of change to give Zelma. Which expression represents the amount of change Zelma should receive?
(A) p - 20, (B) 20 - 40p, (C) 20 - 0.40p, (D) 0.40p - 20
Answer: C
Please answer the following question with just the correct option (A, B, C, or D) without any explanation or additional text.
Suppose A and B are n x n invertible matrices, where n > 1, and I is the n x n identity matrix. If A and B are similar matrices, which of the following statements must be true?	I. A - 2I and B - 2I are similar matrices. II. A and B have the same trace.	 III. A^-1 and B^-1 are similar matrices.
(A) 'I only', (B) 'II only', (C) 'III only', (D) 'I, II, and III'
Answer:","","","","","","","","","","","","","","","","","","","","","","feedback_imgs/Correct.png"
"call-function","39","496911","0.0-4.0-0.8","qn3ur87dsephmtc","668048bf23b961683549d089","67b62c430b9240ccd8986e70","67b631c487e7b8e1a3e9d597","1","","","","","","defer","Let C be the circle in the yz-plane whose equation is (y - 3)^2 + z^2 = 1. If C is revolved around the z-axis, the surface generated is a torus. What is the equation of this torus?","[""x^2 + y^2 + z^2 + 8 = 6y"",""(x^2 + y^2 + z^2)^2 = 8 + 36(x^2 + z^2)"",""(x^2 + y^2 + z^2 + 8)^2 = 36(x^2 + z^2)"",""(x^2 + y^2 + z^2 + 8)^2 = 36(x^2 + y^2)""]","B","B","modiste","","D","115","algLinUCB_0.9","diff-topics","college_mathematics","The following are multiple choice questions about high_school_mathematics.
Colton and his dad bought a gallon of paint that cost $13. They also bought 2 brushes that cost $9 each. What was the total cost, not including tax, of the brushes and the paint they bought?
(A) $22, (B) $24, (C) $31, (D) $35
Answer: C
Solve for y. y – 2 + 3y = 10
(A) 2, (B) 3, (C) 4, (D) 5
Answer: B
Solve 3 over 2 * w = 66.
(A) 33, (B) 44, (C) 88, (D) 99
Answer: B
Write 5.875 as a mixed number or fraction in simplest form.
(A) 5 and 8 over 9, (B) 5 and 7 over 8, (C) 7 over 8, (D) 5 and 87 over 105
Answer: B
Solve the equation 124 = m + 34.
(A) 158, (B) 90, (C) 88, (D) 4,216
Answer: B
Zelma buys p pounds of bananas for 40 cents per pound. She pays the clerk with a twenty-dollar bill. The clerk subtracts the total cost of the bananas from the twenty-dollar bill to determine the amount of change to give Zelma. Which expression represents the amount of change Zelma should receive?
(A) p - 20, (B) 20 - 40p, (C) 20 - 0.40p, (D) 0.40p - 20
Answer: C
Please answer the following question with just the correct option (A, B, C, or D) without any explanation or additional text.
Let C be the circle in the yz-plane whose equation is (y - 3)^2 + z^2 = 1. If C is revolved around the z-axis, the surface generated is a torus. What is the equation of this torus?
(A) 'x^2 + y^2 + z^2 + 8 = 6y', (B) '(x^2 + y^2 + z^2)^2 = 8 + 36(x^2 + z^2)', (C) '(x^2 + y^2 + z^2 + 8)^2 = 36(x^2 + z^2)', (D) '(x^2 + y^2 + z^2 + 8)^2 = 36(x^2 + y^2)'
Answer:","","","","","","","","","","","","true","2","","","","","","","","",""
"survey-html-form","40","512416","0.0-4.0-1.8","qn3ur87dsephmtc","668048bf23b961683549d089","67b62c430b9240ccd8986e70","67b631c487e7b8e1a3e9d597","1","15503.09999999404","","","{""mcAnswer"":""B""}","","","Let C be the circle in the yz-plane whose equation is (y - 3)^2 + z^2 = 1. If C is revolved around the z-axis, the surface generated is a torus. What is the equation of this torus?","[""x^2 + y^2 + z^2 + 8 = 6y"",""(x^2 + y^2 + z^2)^2 = 8 + 36(x^2 + z^2)"",""(x^2 + y^2 + z^2 + 8)^2 = 36(x^2 + z^2)"",""(x^2 + y^2 + z^2 + 8)^2 = 36(x^2 + y^2)""]","B","B","modiste","","D","115","algLinUCB_0.9","diff-topics","college_mathematics","The following are multiple choice questions about high_school_mathematics.
Colton and his dad bought a gallon of paint that cost $13. They also bought 2 brushes that cost $9 each. What was the total cost, not including tax, of the brushes and the paint they bought?
(A) $22, (B) $24, (C) $31, (D) $35
Answer: C
Solve for y. y – 2 + 3y = 10
(A) 2, (B) 3, (C) 4, (D) 5
Answer: B
Solve 3 over 2 * w = 66.
(A) 33, (B) 44, (C) 88, (D) 99
Answer: B
Write 5.875 as a mixed number or fraction in simplest form.
(A) 5 and 8 over 9, (B) 5 and 7 over 8, (C) 7 over 8, (D) 5 and 87 over 105
Answer: B
Solve the equation 124 = m + 34.
(A) 158, (B) 90, (C) 88, (D) 4,216
Answer: B
Zelma buys p pounds of bananas for 40 cents per pound. She pays the clerk with a twenty-dollar bill. The clerk subtracts the total cost of the bananas from the twenty-dollar bill to determine the amount of change to give Zelma. Which expression represents the amount of change Zelma should receive?
(A) p - 20, (B) 20 - 40p, (C) 20 - 0.40p, (D) 0.40p - 20
Answer: C
Please answer the following question with just the correct option (A, B, C, or D) without any explanation or additional text.
Let C be the circle in the yz-plane whose equation is (y - 3)^2 + z^2 = 1. If C is revolved around the z-axis, the surface generated is a torus. What is the equation of this torus?
(A) 'x^2 + y^2 + z^2 + 8 = 6y', (B) '(x^2 + y^2 + z^2)^2 = 8 + 36(x^2 + z^2)', (C) '(x^2 + y^2 + z^2 + 8)^2 = 36(x^2 + z^2)', (D) '(x^2 + y^2 + z^2 + 8)^2 = 36(x^2 + y^2)'
Answer:","","","","","","","","","","","","","","","","","","","","","",""
"","","","","","","","","","","","","","","","","","","","","","","","","","","","B","","","","","","","","","","","","","","","","","","","","",""
"","","","","","","","","","","","","","","","","","","","","","","","","","","","","false","147","-1","B","false","false","defer","[]","false","0","true","2","{""elementary_mathematics"":[""40/50"",""31/50"",""7/8""],""high_school_mathematics"":[""29/52"",""22/50"",""3/6""],""college_mathematics"":[""22/50"",""28/53"",""2 / 5""]}","{""high_school_mathematics"":false,""elementary_mathematics"":false,""college_mathematics"":false}","You should outsource this problem to the AI agent","false","null","true","null","null",""
"image-keyboard-response","41","513920","0.0-4.0-2.8","qn3ur87dsephmtc","668048bf23b961683549d089","67b62c430b9240ccd8986e70","67b631c487e7b8e1a3e9d597","1","null","","","null","","","Let C be the circle in the yz-plane whose equation is (y - 3)^2 + z^2 = 1. If C is revolved around the z-axis, the surface generated is a torus. What is the equation of this torus?","[""x^2 + y^2 + z^2 + 8 = 6y"",""(x^2 + y^2 + z^2)^2 = 8 + 36(x^2 + z^2)"",""(x^2 + y^2 + z^2 + 8)^2 = 36(x^2 + z^2)"",""(x^2 + y^2 + z^2 + 8)^2 = 36(x^2 + y^2)""]","B","B","modiste","","D","115","algLinUCB_0.9","diff-topics","college_mathematics","The following are multiple choice questions about high_school_mathematics.
Colton and his dad bought a gallon of paint that cost $13. They also bought 2 brushes that cost $9 each. What was the total cost, not including tax, of the brushes and the paint they bought?
(A) $22, (B) $24, (C) $31, (D) $35
Answer: C
Solve for y. y – 2 + 3y = 10
(A) 2, (B) 3, (C) 4, (D) 5
Answer: B
Solve 3 over 2 * w = 66.
(A) 33, (B) 44, (C) 88, (D) 99
Answer: B
Write 5.875 as a mixed number or fraction in simplest form.
(A) 5 and 8 over 9, (B) 5 and 7 over 8, (C) 7 over 8, (D) 5 and 87 over 105
Answer: B
Solve the equation 124 = m + 34.
(A) 158, (B) 90, (C) 88, (D) 4,216
Answer: B
Zelma buys p pounds of bananas for 40 cents per pound. She pays the clerk with a twenty-dollar bill. The clerk subtracts the total cost of the bananas from the twenty-dollar bill to determine the amount of change to give Zelma. Which expression represents the amount of change Zelma should receive?
(A) p - 20, (B) 20 - 40p, (C) 20 - 0.40p, (D) 0.40p - 20
Answer: C
Please answer the following question with just the correct option (A, B, C, or D) without any explanation or additional text.
Let C be the circle in the yz-plane whose equation is (y - 3)^2 + z^2 = 1. If C is revolved around the z-axis, the surface generated is a torus. What is the equation of this torus?
(A) 'x^2 + y^2 + z^2 + 8 = 6y', (B) '(x^2 + y^2 + z^2)^2 = 8 + 36(x^2 + z^2)', (C) '(x^2 + y^2 + z^2 + 8)^2 = 36(x^2 + z^2)', (D) '(x^2 + y^2 + z^2 + 8)^2 = 36(x^2 + y^2)'
Answer:","","","","","","","","","","","","","","","","","","","","","","feedback_imgs/Incorrect.png"
"call-function","42","513921","0.0-4.0-0.9","qn3ur87dsephmtc","668048bf23b961683549d089","67b62c430b9240ccd8986e70","67b631c487e7b8e1a3e9d597","1","","","","","","defer","S(n) is a statement about positive integers n such that whenever S(k) is true, S(k + 1) must also be true. Furthermore, there exists some positive integer n0 such that S(n0) is not true. Of the following, which is the strongest conclusion that can be drawn?","[""S(n0 + 1) is not true."",""S(n0 - 1) is not true."",""S(n) is not true for any n <= n0"",""S(n) is not true for any n >= n0""]","D","B","modiste","","C","110","algLinUCB_0.9","diff-topics","college_mathematics","The following are multiple choice questions about high_school_mathematics.
Colton and his dad bought a gallon of paint that cost $13. They also bought 2 brushes that cost $9 each. What was the total cost, not including tax, of the brushes and the paint they bought?
(A) $22, (B) $24, (C) $31, (D) $35
Answer: C
Solve for y. y – 2 + 3y = 10
(A) 2, (B) 3, (C) 4, (D) 5
Answer: B
Solve 3 over 2 * w = 66.
(A) 33, (B) 44, (C) 88, (D) 99
Answer: B
Write 5.875 as a mixed number or fraction in simplest form.
(A) 5 and 8 over 9, (B) 5 and 7 over 8, (C) 7 over 8, (D) 5 and 87 over 105
Answer: B
Solve the equation 124 = m + 34.
(A) 158, (B) 90, (C) 88, (D) 4,216
Answer: B
Zelma buys p pounds of bananas for 40 cents per pound. She pays the clerk with a twenty-dollar bill. The clerk subtracts the total cost of the bananas from the twenty-dollar bill to determine the amount of change to give Zelma. Which expression represents the amount of change Zelma should receive?
(A) p - 20, (B) 20 - 40p, (C) 20 - 0.40p, (D) 0.40p - 20
Answer: C
Please answer the following question with just the correct option (A, B, C, or D) without any explanation or additional text.
S(n) is a statement about positive integers n such that whenever S(k) is true, S(k + 1) must also be true. Furthermore, there exists some positive integer n0 such that S(n0) is not true. Of the following, which is the strongest conclusion that can be drawn?
(A) 'S(n0 + 1) is not true.', (B) 'S(n0 - 1) is not true.', (C) 'S(n) is not true for any n <= n0', (D) 'S(n) is not true for any n >= n0'
Answer:","","","","","","","","","","","","true","2","","","","","","","","",""
"survey-html-form","43","532572","0.0-4.0-1.9","qn3ur87dsephmtc","668048bf23b961683549d089","67b62c430b9240ccd8986e70","67b631c487e7b8e1a3e9d597","1","18647.5","","","{""mcAnswer"":""D""}","","","S(n) is a statement about positive integers n such that whenever S(k) is true, S(k + 1) must also be true. Furthermore, there exists some positive integer n0 such that S(n0) is not true. Of the following, which is the strongest conclusion that can be drawn?","[""S(n0 + 1) is not true."",""S(n0 - 1) is not true."",""S(n) is not true for any n <= n0"",""S(n) is not true for any n >= n0""]","D","B","modiste","","C","110","algLinUCB_0.9","diff-topics","college_mathematics","The following are multiple choice questions about high_school_mathematics.
Colton and his dad bought a gallon of paint that cost $13. They also bought 2 brushes that cost $9 each. What was the total cost, not including tax, of the brushes and the paint they bought?
(A) $22, (B) $24, (C) $31, (D) $35
Answer: C
Solve for y. y – 2 + 3y = 10
(A) 2, (B) 3, (C) 4, (D) 5
Answer: B
Solve 3 over 2 * w = 66.
(A) 33, (B) 44, (C) 88, (D) 99
Answer: B
Write 5.875 as a mixed number or fraction in simplest form.
(A) 5 and 8 over 9, (B) 5 and 7 over 8, (C) 7 over 8, (D) 5 and 87 over 105
Answer: B
Solve the equation 124 = m + 34.
(A) 158, (B) 90, (C) 88, (D) 4,216
Answer: B
Zelma buys p pounds of bananas for 40 cents per pound. She pays the clerk with a twenty-dollar bill. The clerk subtracts the total cost of the bananas from the twenty-dollar bill to determine the amount of change to give Zelma. Which expression represents the amount of change Zelma should receive?
(A) p - 20, (B) 20 - 40p, (C) 20 - 0.40p, (D) 0.40p - 20
Answer: C
Please answer the following question with just the correct option (A, B, C, or D) without any explanation or additional text.
S(n) is a statement about positive integers n such that whenever S(k) is true, S(k + 1) must also be true. Furthermore, there exists some positive integer n0 such that S(n0) is not true. Of the following, which is the strongest conclusion that can be drawn?
(A) 'S(n0 + 1) is not true.', (B) 'S(n0 - 1) is not true.', (C) 'S(n) is not true for any n <= n0', (D) 'S(n) is not true for any n >= n0'
Answer:","","","","","","","","","","","","","","","","","","","","","",""
"","","","","","","","","","","","","","","","","","","","","","","","","","","","D","","","","","","","","","","","","","","","","","","","","",""
"","","","","","","","","","","","","","","","","","","","","","","","","","","","","false","144","-1","D","false","false","defer","[]","false","0","true","2","{""elementary_mathematics"":[""40/50"",""31/50"",""7/8""],""high_school_mathematics"":[""29/52"",""22/50"",""3/6""],""college_mathematics"":[""22/50"",""28/54"",""2 / 5""]}","{""high_school_mathematics"":false,""elementary_mathematics"":false,""college_mathematics"":false}","You should outsource this problem to the AI agent","false","null","true","null","null",""
"image-keyboard-response","44","534077","0.0-4.0-2.9","qn3ur87dsephmtc","668048bf23b961683549d089","67b62c430b9240ccd8986e70","67b631c487e7b8e1a3e9d597","1","null","","","null","","","S(n) is a statement about positive integers n such that whenever S(k) is true, S(k + 1) must also be true. Furthermore, there exists some positive integer n0 such that S(n0) is not true. Of the following, which is the strongest conclusion that can be drawn?","[""S(n0 + 1) is not true."",""S(n0 - 1) is not true."",""S(n) is not true for any n <= n0"",""S(n) is not true for any n >= n0""]","D","B","modiste","","C","110","algLinUCB_0.9","diff-topics","college_mathematics","The following are multiple choice questions about high_school_mathematics.
Colton and his dad bought a gallon of paint that cost $13. They also bought 2 brushes that cost $9 each. What was the total cost, not including tax, of the brushes and the paint they bought?
(A) $22, (B) $24, (C) $31, (D) $35
Answer: C
Solve for y. y – 2 + 3y = 10
(A) 2, (B) 3, (C) 4, (D) 5
Answer: B
Solve 3 over 2 * w = 66.
(A) 33, (B) 44, (C) 88, (D) 99
Answer: B
Write 5.875 as a mixed number or fraction in simplest form.
(A) 5 and 8 over 9, (B) 5 and 7 over 8, (C) 7 over 8, (D) 5 and 87 over 105
Answer: B
Solve the equation 124 = m + 34.
(A) 158, (B) 90, (C) 88, (D) 4,216
Answer: B
Zelma buys p pounds of bananas for 40 cents per pound. She pays the clerk with a twenty-dollar bill. The clerk subtracts the total cost of the bananas from the twenty-dollar bill to determine the amount of change to give Zelma. Which expression represents the amount of change Zelma should receive?
(A) p - 20, (B) 20 - 40p, (C) 20 - 0.40p, (D) 0.40p - 20
Answer: C
Please answer the following question with just the correct option (A, B, C, or D) without any explanation or additional text.
S(n) is a statement about positive integers n such that whenever S(k) is true, S(k + 1) must also be true. Furthermore, there exists some positive integer n0 such that S(n0) is not true. Of the following, which is the strongest conclusion that can be drawn?
(A) 'S(n0 + 1) is not true.', (B) 'S(n0 - 1) is not true.', (C) 'S(n) is not true for any n <= n0', (D) 'S(n) is not true for any n >= n0'
Answer:","","","","","","","","","","","","","","","","","","","","","","feedback_imgs/Incorrect.png"
"call-function","45","534078","0.0-4.0-0.10","qn3ur87dsephmtc","668048bf23b961683549d089","67b62c430b9240ccd8986e70","67b631c487e7b8e1a3e9d597","1","","","","","","defer","If f(x)=ax^6-bx^4+x-1 and f(2)=5, then what is the value of f(-2)?","[""1"",""3"",""0"",""5""]","C","D","modiste","","A","63","algLinUCB_0.9","diff-topics","high_school_mathematics","The following are multiple choice questions about high_school_mathematics.
Colton and his dad bought a gallon of paint that cost $13. They also bought 2 brushes that cost $9 each. What was the total cost, not including tax, of the brushes and the paint they bought?
(A) $22, (B) $24, (C) $31, (D) $35
Answer: C
Solve for y. y – 2 + 3y = 10
(A) 2, (B) 3, (C) 4, (D) 5
Answer: B
Solve 3 over 2 * w = 66.
(A) 33, (B) 44, (C) 88, (D) 99
Answer: B
Write 5.875 as a mixed number or fraction in simplest form.
(A) 5 and 8 over 9, (B) 5 and 7 over 8, (C) 7 over 8, (D) 5 and 87 over 105
Answer: B
Solve the equation 124 = m + 34.
(A) 158, (B) 90, (C) 88, (D) 4,216
Answer: B
Zelma buys p pounds of bananas for 40 cents per pound. She pays the clerk with a twenty-dollar bill. The clerk subtracts the total cost of the bananas from the twenty-dollar bill to determine the amount of change to give Zelma. Which expression represents the amount of change Zelma should receive?
(A) p - 20, (B) 20 - 40p, (C) 20 - 0.40p, (D) 0.40p - 20
Answer: C
Please answer the following question with just the correct option (A, B, C, or D) without any explanation or additional text.
If f(x)=ax^6-bx^4+x-1 and f(2)=5, then what is the value of f(-2)?
(A) '1', (B) '3', (C) '0', (D) '5'
Answer:","","","","","","","","","","true","2","","","","","","","","","","",""
"survey-html-form","46","552014","0.0-4.0-1.10","qn3ur87dsephmtc","668048bf23b961683549d089","67b62c430b9240ccd8986e70","67b631c487e7b8e1a3e9d597","1","17932","","","{""mcAnswer"":""D""}","","","If f(x)=ax^6-bx^4+x-1 and f(2)=5, then what is the value of f(-2)?","[""1"",""3"",""0"",""5""]","C","D","modiste","","A","63","algLinUCB_0.9","diff-topics","high_school_mathematics","The following are multiple choice questions about high_school_mathematics.
Colton and his dad bought a gallon of paint that cost $13. They also bought 2 brushes that cost $9 each. What was the total cost, not including tax, of the brushes and the paint they bought?
(A) $22, (B) $24, (C) $31, (D) $35
Answer: C
Solve for y. y – 2 + 3y = 10
(A) 2, (B) 3, (C) 4, (D) 5
Answer: B
Solve 3 over 2 * w = 66.
(A) 33, (B) 44, (C) 88, (D) 99
Answer: B
Write 5.875 as a mixed number or fraction in simplest form.
(A) 5 and 8 over 9, (B) 5 and 7 over 8, (C) 7 over 8, (D) 5 and 87 over 105
Answer: B
Solve the equation 124 = m + 34.
(A) 158, (B) 90, (C) 88, (D) 4,216
Answer: B
Zelma buys p pounds of bananas for 40 cents per pound. She pays the clerk with a twenty-dollar bill. The clerk subtracts the total cost of the bananas from the twenty-dollar bill to determine the amount of change to give Zelma. Which expression represents the amount of change Zelma should receive?
(A) p - 20, (B) 20 - 40p, (C) 20 - 0.40p, (D) 0.40p - 20
Answer: C
Please answer the following question with just the correct option (A, B, C, or D) without any explanation or additional text.
If f(x)=ax^6-bx^4+x-1 and f(2)=5, then what is the value of f(-2)?
(A) '1', (B) '3', (C) '0', (D) '5'
Answer:","","","","","","","","","","","","","","","","","","","","","",""
"","","","","","","","","","","","","","","","","","","","","","","","","","","","D","","","","","","","","","","","","","","","","","","","","",""
"","","","","","","","","","","","","","","","","","","","","","","","","","","","","false","137","-1","C","false","false","defer","[]","true","2","false","0","{""elementary_mathematics"":[""40/50"",""31/50"",""7/8""],""high_school_mathematics"":[""29/53"",""22/50"",""3/6""],""college_mathematics"":[""22/50"",""28/54"",""2 / 5""]}","{""high_school_mathematics"":false,""elementary_mathematics"":false,""college_mathematics"":false}","You should outsource this problem to a human agent","null","false","null","true","null",""
"image-keyboard-response","47","553518","0.0-4.0-2.10","qn3ur87dsephmtc","668048bf23b961683549d089","67b62c430b9240ccd8986e70","67b631c487e7b8e1a3e9d597","1","null","","","null","","","If f(x)=ax^6-bx^4+x-1 and f(2)=5, then what is the value of f(-2)?","[""1"",""3"",""0"",""5""]","C","D","modiste","","A","63","algLinUCB_0.9","diff-topics","high_school_mathematics","The following are multiple choice questions about high_school_mathematics.
Colton and his dad bought a gallon of paint that cost $13. They also bought 2 brushes that cost $9 each. What was the total cost, not including tax, of the brushes and the paint they bought?
(A) $22, (B) $24, (C) $31, (D) $35
Answer: C
Solve for y. y – 2 + 3y = 10
(A) 2, (B) 3, (C) 4, (D) 5
Answer: B
Solve 3 over 2 * w = 66.
(A) 33, (B) 44, (C) 88, (D) 99
Answer: B
Write 5.875 as a mixed number or fraction in simplest form.
(A) 5 and 8 over 9, (B) 5 and 7 over 8, (C) 7 over 8, (D) 5 and 87 over 105
Answer: B
Solve the equation 124 = m + 34.
(A) 158, (B) 90, (C) 88, (D) 4,216
Answer: B
Zelma buys p pounds of bananas for 40 cents per pound. She pays the clerk with a twenty-dollar bill. The clerk subtracts the total cost of the bananas from the twenty-dollar bill to determine the amount of change to give Zelma. Which expression represents the amount of change Zelma should receive?
(A) p - 20, (B) 20 - 40p, (C) 20 - 0.40p, (D) 0.40p - 20
Answer: C
Please answer the following question with just the correct option (A, B, C, or D) without any explanation or additional text.
If f(x)=ax^6-bx^4+x-1 and f(2)=5, then what is the value of f(-2)?
(A) '1', (B) '3', (C) '0', (D) '5'
Answer:","","","","","","","","","","","","","","","","","","","","","","feedback_imgs/Incorrect.png"
"call-function","48","553519","0.0-4.0-0.11","qn3ur87dsephmtc","668048bf23b961683549d089","67b62c430b9240ccd8986e70","67b631c487e7b8e1a3e9d597","1","","","","","","defer","Write 8 and 2 over 4 as an improper fraction in simplest form.","[""17 over 2"",""34 over 4"",""17 over 4"",""19 over 2""]","B","A","modiste","","A","92","algLinUCB_0.9","diff-topics","elementary_mathematics","The following are multiple choice questions about high_school_mathematics.
Colton and his dad bought a gallon of paint that cost $13. They also bought 2 brushes that cost $9 each. What was the total cost, not including tax, of the brushes and the paint they bought?
(A) $22, (B) $24, (C) $31, (D) $35
Answer: C
Solve for y. y – 2 + 3y = 10
(A) 2, (B) 3, (C) 4, (D) 5
Answer: B
Solve 3 over 2 * w = 66.
(A) 33, (B) 44, (C) 88, (D) 99
Answer: B
Write 5.875 as a mixed number or fraction in simplest form.
(A) 5 and 8 over 9, (B) 5 and 7 over 8, (C) 7 over 8, (D) 5 and 87 over 105
Answer: B
Solve the equation 124 = m + 34.
(A) 158, (B) 90, (C) 88, (D) 4,216
Answer: B
Zelma buys p pounds of bananas for 40 cents per pound. She pays the clerk with a twenty-dollar bill. The clerk subtracts the total cost of the bananas from the twenty-dollar bill to determine the amount of change to give Zelma. Which expression represents the amount of change Zelma should receive?
(A) p - 20, (B) 20 - 40p, (C) 20 - 0.40p, (D) 0.40p - 20
Answer: C
Please answer the following question with just the correct option (A, B, C, or D) without any explanation or additional text.
Write 8 and 2 over 4 as an improper fraction in simplest form.
(A) '17 over 2', (B) '34 over 4', (C) '17 over 4', (D) '19 over 2'
Answer:","","","","","","","","","","","","true","2","","","","","","","","",""
"survey-html-form","49","582239","0.0-4.0-1.11","qn3ur87dsephmtc","668048bf23b961683549d089","67b62c430b9240ccd8986e70","67b631c487e7b8e1a3e9d597","1","28715.899999976158","","","{""mcAnswer"":""B""}","","","Write 8 and 2 over 4 as an improper fraction in simplest form.","[""17 over 2"",""34 over 4"",""17 over 4"",""19 over 2""]","B","A","modiste","","A","92","algLinUCB_0.9","diff-topics","elementary_mathematics","The following are multiple choice questions about high_school_mathematics.
Colton and his dad bought a gallon of paint that cost $13. They also bought 2 brushes that cost $9 each. What was the total cost, not including tax, of the brushes and the paint they bought?
(A) $22, (B) $24, (C) $31, (D) $35
Answer: C
Solve for y. y – 2 + 3y = 10
(A) 2, (B) 3, (C) 4, (D) 5
Answer: B
Solve 3 over 2 * w = 66.
(A) 33, (B) 44, (C) 88, (D) 99
Answer: B
Write 5.875 as a mixed number or fraction in simplest form.
(A) 5 and 8 over 9, (B) 5 and 7 over 8, (C) 7 over 8, (D) 5 and 87 over 105
Answer: B
Solve the equation 124 = m + 34.
(A) 158, (B) 90, (C) 88, (D) 4,216
Answer: B
Zelma buys p pounds of bananas for 40 cents per pound. She pays the clerk with a twenty-dollar bill. The clerk subtracts the total cost of the bananas from the twenty-dollar bill to determine the amount of change to give Zelma. Which expression represents the amount of change Zelma should receive?
(A) p - 20, (B) 20 - 40p, (C) 20 - 0.40p, (D) 0.40p - 20
Answer: C
Please answer the following question with just the correct option (A, B, C, or D) without any explanation or additional text.
Write 8 and 2 over 4 as an improper fraction in simplest form.
(A) '17 over 2', (B) '34 over 4', (C) '17 over 4', (D) '19 over 2'
Answer:","","","","","","","","","","","","","","","","","","","","","",""
"","","","","","","","","","","","","","","","","","","","","","","","","","","","B","","","","","","","","","","","","","","","","","","","","",""
"","","","","","","","","","","","","","","","","","","","","","","","","","","","","false","134","-1","B","false","false","defer","[]","false","0","true","2","{""elementary_mathematics"":[""40/50"",""31/51"",""7/8""],""high_school_mathematics"":[""29/53"",""22/50"",""3/6""],""college_mathematics"":[""22/50"",""28/54"",""2 / 5""]}","{""high_school_mathematics"":false,""elementary_mathematics"":false,""college_mathematics"":false}","You should attempt this problem by yourself","false","null","null","null","false",""
"image-keyboard-response","50","583742","0.0-4.0-2.11","qn3ur87dsephmtc","668048bf23b961683549d089","67b62c430b9240ccd8986e70","67b631c487e7b8e1a3e9d597","1","null","","","null","","","Write 8 and 2 over 4 as an improper fraction in simplest form.","[""17 over 2"",""34 over 4"",""17 over 4"",""19 over 2""]","B","A","modiste","","A","92","algLinUCB_0.9","diff-topics","elementary_mathematics","The following are multiple choice questions about high_school_mathematics.
Colton and his dad bought a gallon of paint that cost $13. They also bought 2 brushes that cost $9 each. What was the total cost, not including tax, of the brushes and the paint they bought?
(A) $22, (B) $24, (C) $31, (D) $35
Answer: C
Solve for y. y – 2 + 3y = 10
(A) 2, (B) 3, (C) 4, (D) 5
Answer: B
Solve 3 over 2 * w = 66.
(A) 33, (B) 44, (C) 88, (D) 99
Answer: B
Write 5.875 as a mixed number or fraction in simplest form.
(A) 5 and 8 over 9, (B) 5 and 7 over 8, (C) 7 over 8, (D) 5 and 87 over 105
Answer: B
Solve the equation 124 = m + 34.
(A) 158, (B) 90, (C) 88, (D) 4,216
Answer: B
Zelma buys p pounds of bananas for 40 cents per pound. She pays the clerk with a twenty-dollar bill. The clerk subtracts the total cost of the bananas from the twenty-dollar bill to determine the amount of change to give Zelma. Which expression represents the amount of change Zelma should receive?
(A) p - 20, (B) 20 - 40p, (C) 20 - 0.40p, (D) 0.40p - 20
Answer: C
Please answer the following question with just the correct option (A, B, C, or D) without any explanation or additional text.
Write 8 and 2 over 4 as an improper fraction in simplest form.
(A) '17 over 2', (B) '34 over 4', (C) '17 over 4', (D) '19 over 2'
Answer:","","","","","","","","","","","","","","","","","","","","","","feedback_imgs/Incorrect.png"
"call-function","51","583743","0.0-4.0-0.12","qn3ur87dsephmtc","668048bf23b961683549d089","67b62c430b9240ccd8986e70","67b631c487e7b8e1a3e9d597","1","","","","","","defer","Find the product of 5.7(8) mentally using the Distributive Property.","[""46.4"",""456"",""4.56"",""45.6""]","D","D","modiste","","D","86","algLinUCB_0.9","diff-topics","elementary_mathematics","The following are multiple choice questions about high_school_mathematics.
Colton and his dad bought a gallon of paint that cost $13. They also bought 2 brushes that cost $9 each. What was the total cost, not including tax, of the brushes and the paint they bought?
(A) $22, (B) $24, (C) $31, (D) $35
Answer: C
Solve for y. y – 2 + 3y = 10
(A) 2, (B) 3, (C) 4, (D) 5
Answer: B
Solve 3 over 2 * w = 66.
(A) 33, (B) 44, (C) 88, (D) 99
Answer: B
Write 5.875 as a mixed number or fraction in simplest form.
(A) 5 and 8 over 9, (B) 5 and 7 over 8, (C) 7 over 8, (D) 5 and 87 over 105
Answer: B
Solve the equation 124 = m + 34.
(A) 158, (B) 90, (C) 88, (D) 4,216
Answer: B
Zelma buys p pounds of bananas for 40 cents per pound. She pays the clerk with a twenty-dollar bill. The clerk subtracts the total cost of the bananas from the twenty-dollar bill to determine the amount of change to give Zelma. Which expression represents the amount of change Zelma should receive?
(A) p - 20, (B) 20 - 40p, (C) 20 - 0.40p, (D) 0.40p - 20
Answer: C
Please answer the following question with just the correct option (A, B, C, or D) without any explanation or additional text.
Find the product of 5.7(8) mentally using the Distributive Property.
(A) '46.4', (B) '456', (C) '4.56', (D) '45.6'
Answer:","","","","","","","","","","","","","","","","","","","","","",""
"survey-html-form","52","609971","0.0-4.0-1.12","qn3ur87dsephmtc","668048bf23b961683549d089","67b62c430b9240ccd8986e70","67b631c487e7b8e1a3e9d597","1","26224","","","{""mcAnswer"":""D""}","","","Find the product of 5.7(8) mentally using the Distributive Property.","[""46.4"",""456"",""4.56"",""45.6""]","D","D","modiste","","D","86","algLinUCB_0.9","diff-topics","elementary_mathematics","The following are multiple choice questions about high_school_mathematics.
Colton and his dad bought a gallon of paint that cost $13. They also bought 2 brushes that cost $9 each. What was the total cost, not including tax, of the brushes and the paint they bought?
(A) $22, (B) $24, (C) $31, (D) $35
Answer: C
Solve for y. y – 2 + 3y = 10
(A) 2, (B) 3, (C) 4, (D) 5
Answer: B
Solve 3 over 2 * w = 66.
(A) 33, (B) 44, (C) 88, (D) 99
Answer: B
Write 5.875 as a mixed number or fraction in simplest form.
(A) 5 and 8 over 9, (B) 5 and 7 over 8, (C) 7 over 8, (D) 5 and 87 over 105
Answer: B
Solve the equation 124 = m + 34.
(A) 158, (B) 90, (C) 88, (D) 4,216
Answer: B
Zelma buys p pounds of bananas for 40 cents per pound. She pays the clerk with a twenty-dollar bill. The clerk subtracts the total cost of the bananas from the twenty-dollar bill to determine the amount of change to give Zelma. Which expression represents the amount of change Zelma should receive?
(A) p - 20, (B) 20 - 40p, (C) 20 - 0.40p, (D) 0.40p - 20
Answer: C
Please answer the following question with just the correct option (A, B, C, or D) without any explanation or additional text.
Find the product of 5.7(8) mentally using the Distributive Property.
(A) '46.4', (B) '456', (C) '4.56', (D) '45.6'
Answer:","","","","","","","","","","","","","","","","","","","","","",""
"","","","","","","","","","","","","","","","","","","","","","","","","","","","D","","","","","","","","","","","","","","","","","","","","",""
"","","","","","","","","","","","","","","","","","","","","","","","","","","","","false","144","-1","D","true","true","defer","[]","false","0","false","0","{""elementary_mathematics"":[""40/50"",""31/51"",""8/9""],""high_school_mathematics"":[""29/53"",""22/50"",""3/6""],""college_mathematics"":[""22/50"",""28/54"",""2 / 5""]}","{""high_school_mathematics"":false,""elementary_mathematics"":false,""college_mathematics"":false}","You should attempt this problem by yourself","null","null","null","null","true",""
"image-keyboard-response","53","611475","0.0-4.0-2.12","qn3ur87dsephmtc","668048bf23b961683549d089","67b62c430b9240ccd8986e70","67b631c487e7b8e1a3e9d597","1","null","","","null","","","Find the product of 5.7(8) mentally using the Distributive Property.","[""46.4"",""456"",""4.56"",""45.6""]","D","D","modiste","","D","86","algLinUCB_0.9","diff-topics","elementary_mathematics","The following are multiple choice questions about high_school_mathematics.
Colton and his dad bought a gallon of paint that cost $13. They also bought 2 brushes that cost $9 each. What was the total cost, not including tax, of the brushes and the paint they bought?
(A) $22, (B) $24, (C) $31, (D) $35
Answer: C
Solve for y. y – 2 + 3y = 10
(A) 2, (B) 3, (C) 4, (D) 5
Answer: B
Solve 3 over 2 * w = 66.
(A) 33, (B) 44, (C) 88, (D) 99
Answer: B
Write 5.875 as a mixed number or fraction in simplest form.
(A) 5 and 8 over 9, (B) 5 and 7 over 8, (C) 7 over 8, (D) 5 and 87 over 105
Answer: B
Solve the equation 124 = m + 34.
(A) 158, (B) 90, (C) 88, (D) 4,216
Answer: B
Zelma buys p pounds of bananas for 40 cents per pound. She pays the clerk with a twenty-dollar bill. The clerk subtracts the total cost of the bananas from the twenty-dollar bill to determine the amount of change to give Zelma. Which expression represents the amount of change Zelma should receive?
(A) p - 20, (B) 20 - 40p, (C) 20 - 0.40p, (D) 0.40p - 20
Answer: C
Please answer the following question with just the correct option (A, B, C, or D) without any explanation or additional text.
Find the product of 5.7(8) mentally using the Distributive Property.
(A) '46.4', (B) '456', (C) '4.56', (D) '45.6'
Answer:","","","","","","","","","","","","","","","","","","","","","","feedback_imgs/Correct.png"
"call-function","54","611476","0.0-4.0-0.13","qn3ur87dsephmtc","668048bf23b961683549d089","67b62c430b9240ccd8986e70","67b631c487e7b8e1a3e9d597","1","","","","","","defer","Find the value of 4 ÷ 2 • 2 + 8 − 4.","[""−12"",""12"",""8"",""16""]","C","C","modiste","","C","80","algLinUCB_0.9","diff-topics","elementary_mathematics","The following are multiple choice questions about high_school_mathematics.
Colton and his dad bought a gallon of paint that cost $13. They also bought 2 brushes that cost $9 each. What was the total cost, not including tax, of the brushes and the paint they bought?
(A) $22, (B) $24, (C) $31, (D) $35
Answer: C
Solve for y. y – 2 + 3y = 10
(A) 2, (B) 3, (C) 4, (D) 5
Answer: B
Solve 3 over 2 * w = 66.
(A) 33, (B) 44, (C) 88, (D) 99
Answer: B
Write 5.875 as a mixed number or fraction in simplest form.
(A) 5 and 8 over 9, (B) 5 and 7 over 8, (C) 7 over 8, (D) 5 and 87 over 105
Answer: B
Solve the equation 124 = m + 34.
(A) 158, (B) 90, (C) 88, (D) 4,216
Answer: B
Zelma buys p pounds of bananas for 40 cents per pound. She pays the clerk with a twenty-dollar bill. The clerk subtracts the total cost of the bananas from the twenty-dollar bill to determine the amount of change to give Zelma. Which expression represents the amount of change Zelma should receive?
(A) p - 20, (B) 20 - 40p, (C) 20 - 0.40p, (D) 0.40p - 20
Answer: C
Please answer the following question with just the correct option (A, B, C, or D) without any explanation or additional text.
Find the value of 4 ÷ 2 • 2 + 8 − 4.
(A) '−12', (B) '12', (C) '8', (D) '16'
Answer:","","","","","","","","","","","","","","","","","","","","","",""
"survey-html-form","55","636270","0.0-4.0-1.13","qn3ur87dsephmtc","668048bf23b961683549d089","67b62c430b9240ccd8986e70","67b631c487e7b8e1a3e9d597","1","24790.40000000596","","","{""mcAnswer"":""C""}","","","Find the value of 4 ÷ 2 • 2 + 8 − 4.","[""−12"",""12"",""8"",""16""]","C","C","modiste","","C","80","algLinUCB_0.9","diff-topics","elementary_mathematics","The following are multiple choice questions about high_school_mathematics.
Colton and his dad bought a gallon of paint that cost $13. They also bought 2 brushes that cost $9 each. What was the total cost, not including tax, of the brushes and the paint they bought?
(A) $22, (B) $24, (C) $31, (D) $35
Answer: C
Solve for y. y – 2 + 3y = 10
(A) 2, (B) 3, (C) 4, (D) 5
Answer: B
Solve 3 over 2 * w = 66.
(A) 33, (B) 44, (C) 88, (D) 99
Answer: B
Write 5.875 as a mixed number or fraction in simplest form.
(A) 5 and 8 over 9, (B) 5 and 7 over 8, (C) 7 over 8, (D) 5 and 87 over 105
Answer: B
Solve the equation 124 = m + 34.
(A) 158, (B) 90, (C) 88, (D) 4,216
Answer: B
Zelma buys p pounds of bananas for 40 cents per pound. She pays the clerk with a twenty-dollar bill. The clerk subtracts the total cost of the bananas from the twenty-dollar bill to determine the amount of change to give Zelma. Which expression represents the amount of change Zelma should receive?
(A) p - 20, (B) 20 - 40p, (C) 20 - 0.40p, (D) 0.40p - 20
Answer: C
Please answer the following question with just the correct option (A, B, C, or D) without any explanation or additional text.
Find the value of 4 ÷ 2 • 2 + 8 − 4.
(A) '−12', (B) '12', (C) '8', (D) '16'
Answer:","","","","","","","","","","","","","","","","","","","","","",""
"","","","","","","","","","","","","","","","","","","","","","","","","","","","C","","","","","","","","","","","","","","","","","","","","",""
"","","","","","","","","","","","","","","","","","","","","","","","","","","","","false","154","-1","C","true","true","defer","[]","false","0","false","0","{""elementary_mathematics"":[""40/50"",""31/51"",""9/10""],""high_school_mathematics"":[""29/53"",""22/50"",""3/6""],""college_mathematics"":[""22/50"",""28/54"",""2 / 5""]}","{""high_school_mathematics"":false,""elementary_mathematics"":false,""college_mathematics"":false}","You should attempt this problem by yourself","null","null","null","null","true",""
"image-keyboard-response","56","637774","0.0-4.0-2.13","qn3ur87dsephmtc","668048bf23b961683549d089","67b62c430b9240ccd8986e70","67b631c487e7b8e1a3e9d597","1","null","","","null","","","Find the value of 4 ÷ 2 • 2 + 8 − 4.","[""−12"",""12"",""8"",""16""]","C","C","modiste","","C","80","algLinUCB_0.9","diff-topics","elementary_mathematics","The following are multiple choice questions about high_school_mathematics.
Colton and his dad bought a gallon of paint that cost $13. They also bought 2 brushes that cost $9 each. What was the total cost, not including tax, of the brushes and the paint they bought?
(A) $22, (B) $24, (C) $31, (D) $35
Answer: C
Solve for y. y – 2 + 3y = 10
(A) 2, (B) 3, (C) 4, (D) 5
Answer: B
Solve 3 over 2 * w = 66.
(A) 33, (B) 44, (C) 88, (D) 99
Answer: B
Write 5.875 as a mixed number or fraction in simplest form.
(A) 5 and 8 over 9, (B) 5 and 7 over 8, (C) 7 over 8, (D) 5 and 87 over 105
Answer: B
Solve the equation 124 = m + 34.
(A) 158, (B) 90, (C) 88, (D) 4,216
Answer: B
Zelma buys p pounds of bananas for 40 cents per pound. She pays the clerk with a twenty-dollar bill. The clerk subtracts the total cost of the bananas from the twenty-dollar bill to determine the amount of change to give Zelma. Which expression represents the amount of change Zelma should receive?
(A) p - 20, (B) 20 - 40p, (C) 20 - 0.40p, (D) 0.40p - 20
Answer: C
Please answer the following question with just the correct option (A, B, C, or D) without any explanation or additional text.
Find the value of 4 ÷ 2 • 2 + 8 − 4.
(A) '−12', (B) '12', (C) '8', (D) '16'
Answer:","","","","","","","","","","","","","","","","","","","","","","feedback_imgs/Correct.png"
"call-function","57","637775","0.0-4.0-0.14","qn3ur87dsephmtc","668048bf23b961683549d089","67b62c430b9240ccd8986e70","67b631c487e7b8e1a3e9d597","1","","","","","","defer","What is the largest order of an element in the group of permutations of 5 objects?","[""5"",""6"",""12"",""15""]","A","B","modiste","","B","109","algLinUCB_0.9","diff-topics","college_mathematics","The following are multiple choice questions about high_school_mathematics.
