"trial_type","trial_index","time_elapsed","internal_node_id","subject","prolific_id","study_id","session_id","condition","rt","url","view_history","response","question_order","value","question","options","llm_answer","population_answer","task","subj_id","label","example_id","variant","main_variant","topic","prompt","llm_support_used","llm_support_clicks","0","btn_clicked","score","timeToClick","modelPred","humanCorrect","modelCorrect","interfaceType","modelPredDist","human_support_used","human_support_clicks","recommendation_lists","incorrect_answers_by_category","recommendation","LLM_outsourcing_overridden","human_outsourcing_overridden","ai_orch_agreement","human_orch_agreement","self_orch_agreement","stimulus"
"pavlovia","0","2172","0.0-0.0","qfj827myosbwn6m","675c65ec27cd0a6fc7c15701","67b62c430b9240ccd8986e70","67b63d1a7825daf039f650db","3","","","","","","","","","","","","","","","","","","","","","","","","","","","","","","","","","","","","","","","",""
"external-html","1","9969","0.0-1.0","qfj827myosbwn6m","675c65ec27cd0a6fc7c15701","67b62c430b9240ccd8986e70","67b63d1a7825daf039f650db","3","7793.5999999996275","consent.html","","","","","","","","","","","","","","","","","","","","","","","","","","","","","","","","","","","","","",""
"instructions","2","1230062","0.0-2.0-0.0","qfj827myosbwn6m","675c65ec27cd0a6fc7c15701","67b62c430b9240ccd8986e70","67b63d1a7825daf039f650db","3","1220092","","[{""page_index"":0,""viewing_time"":1029217.4000000004},{""page_index"":1,""viewing_time"":10937.900000000373},{""page_index"":2,""viewing_time"":4061.5},{""page_index"":1,""viewing_time"":28616.699999999255},{""page_index"":2,""viewing_time"":7148.5999999996275},{""page_index"":3,""viewing_time"":109031.80000000075},{""page_index"":4,""viewing_time"":6977.300000000745},{""page_index"":5,""viewing_time"":16284.5},{""page_index"":6,""viewing_time"":1706.2999999988824},{""page_index"":7,""viewing_time"":6109.800000000745}]","","","","","","","","","","","","","","","","","","","","","","","","","","","","","","","","","","","","",""
"survey-multi-choice","3","1239689","0.0-2.0-1.0","qfj827myosbwn6m","675c65ec27cd0a6fc7c15701","67b62c430b9240ccd8986e70","67b63d1a7825daf039f650db","3","9625.099999999627","","","{""Q0"":""The answer to a mutliple choice question."",""Q1"":""Clicking on a radio button.""}","[0,1]","","","","","","","","","","","","","","","","","","","","","","","","","","","","","","","","","","",""
"instructions","4","1261890","0.0-3.0","qfj827myosbwn6m","675c65ec27cd0a6fc7c15701","67b62c430b9240ccd8986e70","67b63d1a7825daf039f650db","3","22200.300000000745","","[{""page_index"":0,""viewing_time"":22200.099999999627}]","","","","","","","","","","","","","","","","","","","","","","","","","","","","","","","","","","","","",""
"call-function","5","1261891","0.0-4.0-0.0","qfj827myosbwn6m","675c65ec27cd0a6fc7c15701","67b62c430b9240ccd8986e70","67b63d1a7825daf039f650db","3","","","","","","defer","The positive square root of 200 is what percent larger than the positive square root of 121? Express your answer to the nearest whole number.","[""29"",""14"",""27"",""11""]","C","A","modiste","","A","197","algLinUCB_0.9","diff-topics","high_school_mathematics","The following are multiple choice questions about high_school_mathematics.
Colton and his dad bought a gallon of paint that cost $13. They also bought 2 brushes that cost $9 each. What was the total cost, not including tax, of the brushes and the paint they bought?
(A) $22, (B) $24, (C) $31, (D) $35
Answer: C
Solve for y. y – 2 + 3y = 10
(A) 2, (B) 3, (C) 4, (D) 5
Answer: B
Solve 3 over 2 * w = 66.
(A) 33, (B) 44, (C) 88, (D) 99
Answer: B
Write 5.875 as a mixed number or fraction in simplest form.
(A) 5 and 8 over 9, (B) 5 and 7 over 8, (C) 7 over 8, (D) 5 and 87 over 105
Answer: B
Solve the equation 124 = m + 34.
(A) 158, (B) 90, (C) 88, (D) 4,216
Answer: B
Zelma buys p pounds of bananas for 40 cents per pound. She pays the clerk with a twenty-dollar bill. The clerk subtracts the total cost of the bananas from the twenty-dollar bill to determine the amount of change to give Zelma. Which expression represents the amount of change Zelma should receive?
(A) p - 20, (B) 20 - 40p, (C) 20 - 0.40p, (D) 0.40p - 20
Answer: C
Please answer the following question with just the correct option (A, B, C, or D) without any explanation or additional text.
The positive square root of 200 is what percent larger than the positive square root of 121? Express your answer to the nearest whole number.
(A) '29', (B) '14', (C) '27', (D) '11'
Answer:","true","2","","","","","","","","","","","","","","","","","","","",""
"survey-html-form","6","1352688","0.0-4.0-1.0","qfj827myosbwn6m","675c65ec27cd0a6fc7c15701","67b62c430b9240ccd8986e70","67b63d1a7825daf039f650db","3","90795.5","","","{""mcAnswer"":""C""}","","","The positive square root of 200 is what percent larger than the positive square root of 121? Express your answer to the nearest whole number.","[""29"",""14"",""27"",""11""]","C","A","modiste","","A","197","algLinUCB_0.9","diff-topics","high_school_mathematics","The following are multiple choice questions about high_school_mathematics.
Colton and his dad bought a gallon of paint that cost $13. They also bought 2 brushes that cost $9 each. What was the total cost, not including tax, of the brushes and the paint they bought?
(A) $22, (B) $24, (C) $31, (D) $35
Answer: C
Solve for y. y – 2 + 3y = 10
(A) 2, (B) 3, (C) 4, (D) 5
Answer: B
Solve 3 over 2 * w = 66.
(A) 33, (B) 44, (C) 88, (D) 99
Answer: B
Write 5.875 as a mixed number or fraction in simplest form.
(A) 5 and 8 over 9, (B) 5 and 7 over 8, (C) 7 over 8, (D) 5 and 87 over 105
Answer: B
Solve the equation 124 = m + 34.
(A) 158, (B) 90, (C) 88, (D) 4,216
Answer: B
Zelma buys p pounds of bananas for 40 cents per pound. She pays the clerk with a twenty-dollar bill. The clerk subtracts the total cost of the bananas from the twenty-dollar bill to determine the amount of change to give Zelma. Which expression represents the amount of change Zelma should receive?
(A) p - 20, (B) 20 - 40p, (C) 20 - 0.40p, (D) 0.40p - 20
Answer: C
Please answer the following question with just the correct option (A, B, C, or D) without any explanation or additional text.
The positive square root of 200 is what percent larger than the positive square root of 121? Express your answer to the nearest whole number.
(A) '29', (B) '14', (C) '27', (D) '11'
Answer:","","","","","","","","","","","","","","","","","","","","","",""
"","","","","","","","","","","","","","","","","","","","","","","","","","","","","","C","","","","","","","","","","","","","","","","","","",""
"","","","","","","","","","","","","","","","","","","","","","","","","","","","true","2","","false","97","-1","C","false","false","defer","[]","false","0","{""elementary_mathematics"":[""40/50"",""31/50"",""4 / 5""],""high_school_mathematics"":[""27/50"",""22/51"",""3 / 5""],""college_mathematics"":[""22/50"",""26/50"",""2 / 5""]}","{""high_school_mathematics"":false}","You should attempt this problem by yourself","false","null","null","null","false",""
"image-keyboard-response","7","1354201","0.0-4.0-2.0","qfj827myosbwn6m","675c65ec27cd0a6fc7c15701","67b62c430b9240ccd8986e70","67b63d1a7825daf039f650db","3","null","","","null","","","The positive square root of 200 is what percent larger than the positive square root of 121? Express your answer to the nearest whole number.","[""29"",""14"",""27"",""11""]","C","A","modiste","","A","197","algLinUCB_0.9","diff-topics","high_school_mathematics","The following are multiple choice questions about high_school_mathematics.
Colton and his dad bought a gallon of paint that cost $13. They also bought 2 brushes that cost $9 each. What was the total cost, not including tax, of the brushes and the paint they bought?
(A) $22, (B) $24, (C) $31, (D) $35
Answer: C
Solve for y. y – 2 + 3y = 10
(A) 2, (B) 3, (C) 4, (D) 5
Answer: B
Solve 3 over 2 * w = 66.
(A) 33, (B) 44, (C) 88, (D) 99
Answer: B
Write 5.875 as a mixed number or fraction in simplest form.
(A) 5 and 8 over 9, (B) 5 and 7 over 8, (C) 7 over 8, (D) 5 and 87 over 105
Answer: B
Solve the equation 124 = m + 34.
(A) 158, (B) 90, (C) 88, (D) 4,216
Answer: B
Zelma buys p pounds of bananas for 40 cents per pound. She pays the clerk with a twenty-dollar bill. The clerk subtracts the total cost of the bananas from the twenty-dollar bill to determine the amount of change to give Zelma. Which expression represents the amount of change Zelma should receive?
(A) p - 20, (B) 20 - 40p, (C) 20 - 0.40p, (D) 0.40p - 20
Answer: C
Please answer the following question with just the correct option (A, B, C, or D) without any explanation or additional text.
The positive square root of 200 is what percent larger than the positive square root of 121? Express your answer to the nearest whole number.
(A) '29', (B) '14', (C) '27', (D) '11'
Answer:","","","","","","","","","","","","","","","","","","","","","","feedback_imgs/Incorrect.png"
"call-function","8","1354201","0.0-4.0-0.1","qfj827myosbwn6m","675c65ec27cd0a6fc7c15701","67b62c430b9240ccd8986e70","67b63d1a7825daf039f650db","3","","","","","","defer","Manuel bought a used car for six thousand forty-nine dollars. What is the cost of the used car Manuel bought written as a numeral?","[""649"",""6,049"",""6,409"",""6,490""]","B","B","modiste","","B","214","algLinUCB_0.9","diff-topics","elementary_mathematics","The following are multiple choice questions about high_school_mathematics.
Colton and his dad bought a gallon of paint that cost $13. They also bought 2 brushes that cost $9 each. What was the total cost, not including tax, of the brushes and the paint they bought?
(A) $22, (B) $24, (C) $31, (D) $35
Answer: C
Solve for y. y – 2 + 3y = 10
(A) 2, (B) 3, (C) 4, (D) 5
Answer: B
Solve 3 over 2 * w = 66.
(A) 33, (B) 44, (C) 88, (D) 99
Answer: B
Write 5.875 as a mixed number or fraction in simplest form.
(A) 5 and 8 over 9, (B) 5 and 7 over 8, (C) 7 over 8, (D) 5 and 87 over 105
Answer: B
Solve the equation 124 = m + 34.
(A) 158, (B) 90, (C) 88, (D) 4,216
Answer: B
Zelma buys p pounds of bananas for 40 cents per pound. She pays the clerk with a twenty-dollar bill. The clerk subtracts the total cost of the bananas from the twenty-dollar bill to determine the amount of change to give Zelma. Which expression represents the amount of change Zelma should receive?
(A) p - 20, (B) 20 - 40p, (C) 20 - 0.40p, (D) 0.40p - 20
Answer: C
Please answer the following question with just the correct option (A, B, C, or D) without any explanation or additional text.
Manuel bought a used car for six thousand forty-nine dollars. What is the cost of the used car Manuel bought written as a numeral?
(A) '649 ', (B) '6,049 ', (C) '6,409 ', (D) '6,490 '
Answer:","","","","","","","","","","","","","","","","","","","","","",""
"survey-html-form","9","1381729","0.0-4.0-1.1","qfj827myosbwn6m","675c65ec27cd0a6fc7c15701","67b62c430b9240ccd8986e70","67b63d1a7825daf039f650db","3","27526.900000000373","","","{""mcAnswer"":""B""}","","","Manuel bought a used car for six thousand forty-nine dollars. What is the cost of the used car Manuel bought written as a numeral?","[""649"",""6,049"",""6,409"",""6,490""]","B","B","modiste","","B","214","algLinUCB_0.9","diff-topics","elementary_mathematics","The following are multiple choice questions about high_school_mathematics.
Colton and his dad bought a gallon of paint that cost $13. They also bought 2 brushes that cost $9 each. What was the total cost, not including tax, of the brushes and the paint they bought?
(A) $22, (B) $24, (C) $31, (D) $35
Answer: C
Solve for y. y – 2 + 3y = 10
(A) 2, (B) 3, (C) 4, (D) 5
Answer: B
Solve 3 over 2 * w = 66.
(A) 33, (B) 44, (C) 88, (D) 99
Answer: B
Write 5.875 as a mixed number or fraction in simplest form.
(A) 5 and 8 over 9, (B) 5 and 7 over 8, (C) 7 over 8, (D) 5 and 87 over 105
Answer: B
Solve the equation 124 = m + 34.
(A) 158, (B) 90, (C) 88, (D) 4,216
Answer: B
Zelma buys p pounds of bananas for 40 cents per pound. She pays the clerk with a twenty-dollar bill. The clerk subtracts the total cost of the bananas from the twenty-dollar bill to determine the amount of change to give Zelma. Which expression represents the amount of change Zelma should receive?
(A) p - 20, (B) 20 - 40p, (C) 20 - 0.40p, (D) 0.40p - 20
Answer: C
Please answer the following question with just the correct option (A, B, C, or D) without any explanation or additional text.
Manuel bought a used car for six thousand forty-nine dollars. What is the cost of the used car Manuel bought written as a numeral?
(A) '649 ', (B) '6,049 ', (C) '6,409 ', (D) '6,490 '
Answer:","","","","","","","","","","","","","","","","","","","","","",""
"","","","","","","","","","","","","","","","","","","","","","","","","","","","","","B","","","","","","","","","","","","","","","","","","",""
"","","","","","","","","","","","","","","","","","","","","","","","","","","","false","0","","false","107","-1","B","true","true","defer","[]","false","0","{""elementary_mathematics"":[""40/50"",""31/50"",""5/6""],""high_school_mathematics"":[""27/50"",""22/51"",""3 / 5""],""college_mathematics"":[""22/50"",""26/50"",""2 / 5""]}","{""high_school_mathematics"":false,""elementary_mathematics"":false}","You should attempt this problem by yourself","null","null","null","null","true",""
"image-keyboard-response","10","1383238","0.0-4.0-2.1","qfj827myosbwn6m","675c65ec27cd0a6fc7c15701","67b62c430b9240ccd8986e70","67b63d1a7825daf039f650db","3","null","","","null","","","Manuel bought a used car for six thousand forty-nine dollars. What is the cost of the used car Manuel bought written as a numeral?","[""649"",""6,049"",""6,409"",""6,490""]","B","B","modiste","","B","214","algLinUCB_0.9","diff-topics","elementary_mathematics","The following are multiple choice questions about high_school_mathematics.
Colton and his dad bought a gallon of paint that cost $13. They also bought 2 brushes that cost $9 each. What was the total cost, not including tax, of the brushes and the paint they bought?
(A) $22, (B) $24, (C) $31, (D) $35
Answer: C
Solve for y. y – 2 + 3y = 10
(A) 2, (B) 3, (C) 4, (D) 5
Answer: B
Solve 3 over 2 * w = 66.
(A) 33, (B) 44, (C) 88, (D) 99
Answer: B
Write 5.875 as a mixed number or fraction in simplest form.
(A) 5 and 8 over 9, (B) 5 and 7 over 8, (C) 7 over 8, (D) 5 and 87 over 105
Answer: B
Solve the equation 124 = m + 34.
(A) 158, (B) 90, (C) 88, (D) 4,216
Answer: B
Zelma buys p pounds of bananas for 40 cents per pound. She pays the clerk with a twenty-dollar bill. The clerk subtracts the total cost of the bananas from the twenty-dollar bill to determine the amount of change to give Zelma. Which expression represents the amount of change Zelma should receive?
(A) p - 20, (B) 20 - 40p, (C) 20 - 0.40p, (D) 0.40p - 20
Answer: C
Please answer the following question with just the correct option (A, B, C, or D) without any explanation or additional text.
Manuel bought a used car for six thousand forty-nine dollars. What is the cost of the used car Manuel bought written as a numeral?
(A) '649 ', (B) '6,049 ', (C) '6,409 ', (D) '6,490 '
Answer:","","","","","","","","","","","","","","","","","","","","","","feedback_imgs/Correct.png"
"call-function","11","1383238","0.0-4.0-0.2","qfj827myosbwn6m","675c65ec27cd0a6fc7c15701","67b62c430b9240ccd8986e70","67b63d1a7825daf039f650db","3","","","","","","defer","Let R be a ring and let U and V be (two-sided) ideals of R. Which of the following must also be ideals of R ?
I. {u + v : u in and v in V}
II. {uv : u in U and v in V}
III. {x : x in U and x in V}","[""II only"",""III only"",""I and II only"",""I and III only""]","D","D","modiste","","D","227","algLinUCB_0.9","diff-topics","college_mathematics","The following are multiple choice questions about high_school_mathematics.
Colton and his dad bought a gallon of paint that cost $13. They also bought 2 brushes that cost $9 each. What was the total cost, not including tax, of the brushes and the paint they bought?
(A) $22, (B) $24, (C) $31, (D) $35
Answer: C
Solve for y. y – 2 + 3y = 10
(A) 2, (B) 3, (C) 4, (D) 5
Answer: B
Solve 3 over 2 * w = 66.
(A) 33, (B) 44, (C) 88, (D) 99
Answer: B
Write 5.875 as a mixed number or fraction in simplest form.
(A) 5 and 8 over 9, (B) 5 and 7 over 8, (C) 7 over 8, (D) 5 and 87 over 105
Answer: B
Solve the equation 124 = m + 34.
(A) 158, (B) 90, (C) 88, (D) 4,216
Answer: B
Zelma buys p pounds of bananas for 40 cents per pound. She pays the clerk with a twenty-dollar bill. The clerk subtracts the total cost of the bananas from the twenty-dollar bill to determine the amount of change to give Zelma. Which expression represents the amount of change Zelma should receive?
(A) p - 20, (B) 20 - 40p, (C) 20 - 0.40p, (D) 0.40p - 20
Answer: C
Please answer the following question with just the correct option (A, B, C, or D) without any explanation or additional text.
Let R be a ring and let U and V be (two-sided) ideals of R. Which of the following must also be ideals of R ?
I. {u + v : u in and v in V}
II. {uv : u in U and v in V}
III. {x : x in U and x in V}
(A) 'II only', (B) 'III only', (C) 'I and II only', (D) 'I and III only'
Answer:","true","2","","","","","","","","","","","","","","","","","","","",""
"survey-html-form","12","1417576","0.0-4.0-1.2","qfj827myosbwn6m","675c65ec27cd0a6fc7c15701","67b62c430b9240ccd8986e70","67b63d1a7825daf039f650db","3","34336.09999999963","","","{""mcAnswer"":""D""}","","","Let R be a ring and let U and V be (two-sided) ideals of R. Which of the following must also be ideals of R ?
I. {u + v : u in and v in V}
II. {uv : u in U and v in V}
III. {x : x in U and x in V}","[""II only"",""III only"",""I and II only"",""I and III only""]","D","D","modiste","","D","227","algLinUCB_0.9","diff-topics","college_mathematics","The following are multiple choice questions about high_school_mathematics.
Colton and his dad bought a gallon of paint that cost $13. They also bought 2 brushes that cost $9 each. What was the total cost, not including tax, of the brushes and the paint they bought?
(A) $22, (B) $24, (C) $31, (D) $35
Answer: C
Solve for y. y – 2 + 3y = 10
(A) 2, (B) 3, (C) 4, (D) 5
Answer: B
Solve 3 over 2 * w = 66.
(A) 33, (B) 44, (C) 88, (D) 99
Answer: B
Write 5.875 as a mixed number or fraction in simplest form.
(A) 5 and 8 over 9, (B) 5 and 7 over 8, (C) 7 over 8, (D) 5 and 87 over 105
Answer: B
Solve the equation 124 = m + 34.
(A) 158, (B) 90, (C) 88, (D) 4,216
Answer: B
Zelma buys p pounds of bananas for 40 cents per pound. She pays the clerk with a twenty-dollar bill. The clerk subtracts the total cost of the bananas from the twenty-dollar bill to determine the amount of change to give Zelma. Which expression represents the amount of change Zelma should receive?
(A) p - 20, (B) 20 - 40p, (C) 20 - 0.40p, (D) 0.40p - 20
Answer: C
Please answer the following question with just the correct option (A, B, C, or D) without any explanation or additional text.
Let R be a ring and let U and V be (two-sided) ideals of R. Which of the following must also be ideals of R ?
I. {u + v : u in and v in V}
II. {uv : u in U and v in V}
III. {x : x in U and x in V}
(A) 'II only', (B) 'III only', (C) 'I and II only', (D) 'I and III only'
Answer:","","","","","","","","","","","","","","","","","","","","","",""
"","","","","","","","","","","","","","","","","","","","","","","","","","","","","","D","","","","","","","","","","","","","","","","","","",""
"","","","","","","","","","","","","","","","","","","","","","","","","","","","true","2","","false","114","-1","D","true","true","defer","[]","false","0","{""elementary_mathematics"":[""40/50"",""31/50"",""5/6""],""high_school_mathematics"":[""27/50"",""22/51"",""3 / 5""],""college_mathematics"":[""22/50"",""27/51"",""2 / 5""]}","{""high_school_mathematics"":false,""elementary_mathematics"":false,""college_mathematics"":false}","You should outsource this problem to the AI agent","false","null","true","null","null",""
"image-keyboard-response","13","1419077","0.0-4.0-2.2","qfj827myosbwn6m","675c65ec27cd0a6fc7c15701","67b62c430b9240ccd8986e70","67b63d1a7825daf039f650db","3","null","","","null","","","Let R be a ring and let U and V be (two-sided) ideals of R. Which of the following must also be ideals of R ?
I. {u + v : u in and v in V}
II. {uv : u in U and v in V}
III. {x : x in U and x in V}","[""II only"",""III only"",""I and II only"",""I and III only""]","D","D","modiste","","D","227","algLinUCB_0.9","diff-topics","college_mathematics","The following are multiple choice questions about high_school_mathematics.
Colton and his dad bought a gallon of paint that cost $13. They also bought 2 brushes that cost $9 each. What was the total cost, not including tax, of the brushes and the paint they bought?
(A) $22, (B) $24, (C) $31, (D) $35
Answer: C
Solve for y. y – 2 + 3y = 10
(A) 2, (B) 3, (C) 4, (D) 5
Answer: B
Solve 3 over 2 * w = 66.
(A) 33, (B) 44, (C) 88, (D) 99
Answer: B
Write 5.875 as a mixed number or fraction in simplest form.
(A) 5 and 8 over 9, (B) 5 and 7 over 8, (C) 7 over 8, (D) 5 and 87 over 105
Answer: B
Solve the equation 124 = m + 34.
(A) 158, (B) 90, (C) 88, (D) 4,216
Answer: B
Zelma buys p pounds of bananas for 40 cents per pound. She pays the clerk with a twenty-dollar bill. The clerk subtracts the total cost of the bananas from the twenty-dollar bill to determine the amount of change to give Zelma. Which expression represents the amount of change Zelma should receive?
(A) p - 20, (B) 20 - 40p, (C) 20 - 0.40p, (D) 0.40p - 20
Answer: C
Please answer the following question with just the correct option (A, B, C, or D) without any explanation or additional text.
Let R be a ring and let U and V be (two-sided) ideals of R. Which of the following must also be ideals of R ?
I. {u + v : u in and v in V}
II. {uv : u in U and v in V}
III. {x : x in U and x in V}
(A) 'II only', (B) 'III only', (C) 'I and II only', (D) 'I and III only'
Answer:","","","","","","","","","","","","","","","","","","","","","","feedback_imgs/Correct.png"
"call-function","14","1419078","0.0-4.0-0.3","qfj827myosbwn6m","675c65ec27cd0a6fc7c15701","67b62c430b9240ccd8986e70","67b63d1a7825daf039f650db","3","","","","","","defer","Which of the following are true:","[""It is possible to place an linear order relation ≤ on the complex numbers C such that (C, +, ×, ≤) is not an ordered field."",""It is possible to place a linear order relation on the complex numbers C which make (C, +, ×, ≤) an ordered field."",""Neither (a) nor (b)"",""Both (a) and (b).""]","A","C","modiste","","A","222","algLinUCB_0.9","diff-topics","college_mathematics","The following are multiple choice questions about high_school_mathematics.
Colton and his dad bought a gallon of paint that cost $13. They also bought 2 brushes that cost $9 each. What was the total cost, not including tax, of the brushes and the paint they bought?
(A) $22, (B) $24, (C) $31, (D) $35
Answer: C
Solve for y. y – 2 + 3y = 10
(A) 2, (B) 3, (C) 4, (D) 5
Answer: B
Solve 3 over 2 * w = 66.
(A) 33, (B) 44, (C) 88, (D) 99
Answer: B
Write 5.875 as a mixed number or fraction in simplest form.
(A) 5 and 8 over 9, (B) 5 and 7 over 8, (C) 7 over 8, (D) 5 and 87 over 105
Answer: B
Solve the equation 124 = m + 34.
(A) 158, (B) 90, (C) 88, (D) 4,216
Answer: B
Zelma buys p pounds of bananas for 40 cents per pound. She pays the clerk with a twenty-dollar bill. The clerk subtracts the total cost of the bananas from the twenty-dollar bill to determine the amount of change to give Zelma. Which expression represents the amount of change Zelma should receive?
(A) p - 20, (B) 20 - 40p, (C) 20 - 0.40p, (D) 0.40p - 20
Answer: C
Please answer the following question with just the correct option (A, B, C, or D) without any explanation or additional text.
Which of the following are true:
(A) 'It is possible to place an linear order relation ≤ on the complex numbers C such that (C, +, ×, ≤) is not an ordered field.', (B) 'It is possible to place a linear order relation on the complex numbers C which make (C, +, ×, ≤) an ordered field.', (C) 'Neither (a) nor (b)', (D) 'Both (a) and (b).'
Answer:","","","","","","","","","","","","","","","","","","","","","",""
"survey-html-form","15","1460320","0.0-4.0-1.3","qfj827myosbwn6m","675c65ec27cd0a6fc7c15701","67b62c430b9240ccd8986e70","67b63d1a7825daf039f650db","3","41241.40000000037","","","{""mcAnswer"":""A""}","","","Which of the following are true:","[""It is possible to place an linear order relation ≤ on the complex numbers C such that (C, +, ×, ≤) is not an ordered field."",""It is possible to place a linear order relation on the complex numbers C which make (C, +, ×, ≤) an ordered field."",""Neither (a) nor (b)"",""Both (a) and (b).""]","A","C","modiste","","A","222","algLinUCB_0.9","diff-topics","college_mathematics","The following are multiple choice questions about high_school_mathematics.
Colton and his dad bought a gallon of paint that cost $13. They also bought 2 brushes that cost $9 each. What was the total cost, not including tax, of the brushes and the paint they bought?
(A) $22, (B) $24, (C) $31, (D) $35
Answer: C
Solve for y. y – 2 + 3y = 10
(A) 2, (B) 3, (C) 4, (D) 5
Answer: B
Solve 3 over 2 * w = 66.
(A) 33, (B) 44, (C) 88, (D) 99
Answer: B
Write 5.875 as a mixed number or fraction in simplest form.
(A) 5 and 8 over 9, (B) 5 and 7 over 8, (C) 7 over 8, (D) 5 and 87 over 105
Answer: B
Solve the equation 124 = m + 34.
(A) 158, (B) 90, (C) 88, (D) 4,216
Answer: B
Zelma buys p pounds of bananas for 40 cents per pound. She pays the clerk with a twenty-dollar bill. The clerk subtracts the total cost of the bananas from the twenty-dollar bill to determine the amount of change to give Zelma. Which expression represents the amount of change Zelma should receive?
(A) p - 20, (B) 20 - 40p, (C) 20 - 0.40p, (D) 0.40p - 20
Answer: C
Please answer the following question with just the correct option (A, B, C, or D) without any explanation or additional text.
Which of the following are true:
(A) 'It is possible to place an linear order relation ≤ on the complex numbers C such that (C, +, ×, ≤) is not an ordered field.', (B) 'It is possible to place a linear order relation on the complex numbers C which make (C, +, ×, ≤) an ordered field.', (C) 'Neither (a) nor (b)', (D) 'Both (a) and (b).'
Answer:","","","","","","","","","","","","","","","","","","","","","",""
"","","","","","","","","","","","","","","","","","","","","","","","","","","","","","A","","","","","","","","","","","","","","","","","","",""
"","","","","","","","","","","","","","","","","","","","","","","","","","","","false","0","","false","124","-1","A","true","true","defer","[]","false","0","{""elementary_mathematics"":[""40/50"",""31/50"",""5/6""],""high_school_mathematics"":[""27/50"",""22/51"",""3 / 5""],""college_mathematics"":[""22/50"",""27/51"",""3/6""]}","{""high_school_mathematics"":false,""elementary_mathematics"":false,""college_mathematics"":false}","You should outsource this problem to the AI agent","null","null","false","null","null",""
"image-keyboard-response","16","1461834","0.0-4.0-2.3","qfj827myosbwn6m","675c65ec27cd0a6fc7c15701","67b62c430b9240ccd8986e70","67b63d1a7825daf039f650db","3","null","","","null","","","Which of the following are true:","[""It is possible to place an linear order relation ≤ on the complex numbers C such that (C, +, ×, ≤) is not an ordered field."",""It is possible to place a linear order relation on the complex numbers C which make (C, +, ×, ≤) an ordered field."",""Neither (a) nor (b)"",""Both (a) and (b).""]","A","C","modiste","","A","222","algLinUCB_0.9","diff-topics","college_mathematics","The following are multiple choice questions about high_school_mathematics.
Colton and his dad bought a gallon of paint that cost $13. They also bought 2 brushes that cost $9 each. What was the total cost, not including tax, of the brushes and the paint they bought?
(A) $22, (B) $24, (C) $31, (D) $35
Answer: C
Solve for y. y – 2 + 3y = 10
(A) 2, (B) 3, (C) 4, (D) 5
Answer: B
Solve 3 over 2 * w = 66.
(A) 33, (B) 44, (C) 88, (D) 99
Answer: B
Write 5.875 as a mixed number or fraction in simplest form.
(A) 5 and 8 over 9, (B) 5 and 7 over 8, (C) 7 over 8, (D) 5 and 87 over 105
Answer: B
Solve the equation 124 = m + 34.
(A) 158, (B) 90, (C) 88, (D) 4,216
Answer: B
Zelma buys p pounds of bananas for 40 cents per pound. She pays the clerk with a twenty-dollar bill. The clerk subtracts the total cost of the bananas from the twenty-dollar bill to determine the amount of change to give Zelma. Which expression represents the amount of change Zelma should receive?
(A) p - 20, (B) 20 - 40p, (C) 20 - 0.40p, (D) 0.40p - 20
Answer: C
Please answer the following question with just the correct option (A, B, C, or D) without any explanation or additional text.
Which of the following are true:
(A) 'It is possible to place an linear order relation ≤ on the complex numbers C such that (C, +, ×, ≤) is not an ordered field.', (B) 'It is possible to place a linear order relation on the complex numbers C which make (C, +, ×, ≤) an ordered field.', (C) 'Neither (a) nor (b)', (D) 'Both (a) and (b).'
Answer:","","","","","","","","","","","","","","","","","","","","","","feedback_imgs/Correct.png"
"call-function","17","1461834","0.0-4.0-0.4","qfj827myosbwn6m","675c65ec27cd0a6fc7c15701","67b62c430b9240ccd8986e70","67b63d1a7825daf039f650db","3","","","","","","defer","Umi created the number pattern that follows by adding the same amount each time to get the next number. 20, 40, 60, 80, ... What will be the eighth number in the pattern?","[""160"",""240"",""320"",""640""]","C","A","modiste","","A","211","algLinUCB_0.9","diff-topics","elementary_mathematics","The following are multiple choice questions about high_school_mathematics.
Colton and his dad bought a gallon of paint that cost $13. They also bought 2 brushes that cost $9 each. What was the total cost, not including tax, of the brushes and the paint they bought?
(A) $22, (B) $24, (C) $31, (D) $35
Answer: C
Solve for y. y – 2 + 3y = 10
(A) 2, (B) 3, (C) 4, (D) 5
Answer: B
Solve 3 over 2 * w = 66.
(A) 33, (B) 44, (C) 88, (D) 99
Answer: B
Write 5.875 as a mixed number or fraction in simplest form.
(A) 5 and 8 over 9, (B) 5 and 7 over 8, (C) 7 over 8, (D) 5 and 87 over 105
Answer: B
Solve the equation 124 = m + 34.
(A) 158, (B) 90, (C) 88, (D) 4,216
Answer: B
Zelma buys p pounds of bananas for 40 cents per pound. She pays the clerk with a twenty-dollar bill. The clerk subtracts the total cost of the bananas from the twenty-dollar bill to determine the amount of change to give Zelma. Which expression represents the amount of change Zelma should receive?
(A) p - 20, (B) 20 - 40p, (C) 20 - 0.40p, (D) 0.40p - 20
Answer: C
Please answer the following question with just the correct option (A, B, C, or D) without any explanation or additional text.
Umi created the number pattern that follows by adding the same amount each time to get the next number. 20, 40, 60, 80, ... What will be the eighth number in the pattern?
(A) '160', (B) '240', (C) '320', (D) '640'
Answer:","","","","","","","","","","","","","","","","","","","","","",""
"survey-html-form","18","1495340","0.0-4.0-1.4","qfj827myosbwn6m","675c65ec27cd0a6fc7c15701","67b62c430b9240ccd8986e70","67b63d1a7825daf039f650db","3","33505.09999999963","","","{""mcAnswer"":""A""}","","","Umi created the number pattern that follows by adding the same amount each time to get the next number. 20, 40, 60, 80, ... What will be the eighth number in the pattern?","[""160"",""240"",""320"",""640""]","C","A","modiste","","A","211","algLinUCB_0.9","diff-topics","elementary_mathematics","The following are multiple choice questions about high_school_mathematics.
Colton and his dad bought a gallon of paint that cost $13. They also bought 2 brushes that cost $9 each. What was the total cost, not including tax, of the brushes and the paint they bought?
(A) $22, (B) $24, (C) $31, (D) $35
Answer: C
Solve for y. y – 2 + 3y = 10
(A) 2, (B) 3, (C) 4, (D) 5
Answer: B
Solve 3 over 2 * w = 66.
(A) 33, (B) 44, (C) 88, (D) 99
Answer: B
Write 5.875 as a mixed number or fraction in simplest form.
(A) 5 and 8 over 9, (B) 5 and 7 over 8, (C) 7 over 8, (D) 5 and 87 over 105
Answer: B
Solve the equation 124 = m + 34.
(A) 158, (B) 90, (C) 88, (D) 4,216
Answer: B
Zelma buys p pounds of bananas for 40 cents per pound. She pays the clerk with a twenty-dollar bill. The clerk subtracts the total cost of the bananas from the twenty-dollar bill to determine the amount of change to give Zelma. Which expression represents the amount of change Zelma should receive?
(A) p - 20, (B) 20 - 40p, (C) 20 - 0.40p, (D) 0.40p - 20
Answer: C
Please answer the following question with just the correct option (A, B, C, or D) without any explanation or additional text.
Umi created the number pattern that follows by adding the same amount each time to get the next number. 20, 40, 60, 80, ... What will be the eighth number in the pattern?
(A) '160', (B) '240', (C) '320', (D) '640'
Answer:","","","","","","","","","","","","","","","","","","","","","",""
"","","","","","","","","","","","","","","","","","","","","","","","","","","","","","A","","","","","","","","","","","","","","","","","","",""
"","","","","","","","","","","","","","","","","","","","","","","","","","","","false","0","","false","134","-1","C","true","false","defer","[]","false","0","{""elementary_mathematics"":[""40/50"",""31/50"",""6/7""],""high_school_mathematics"":[""27/50"",""22/51"",""3 / 5""],""college_mathematics"":[""22/50"",""27/51"",""3/6""]}","{""high_school_mathematics"":false,""elementary_mathematics"":false,""college_mathematics"":false}","You should attempt this problem by yourself","null","null","null","null","true",""
"image-keyboard-response","19","1496856","0.0-4.0-2.4","qfj827myosbwn6m","675c65ec27cd0a6fc7c15701","67b62c430b9240ccd8986e70","67b63d1a7825daf039f650db","3","null","","","null","","","Umi created the number pattern that follows by adding the same amount each time to get the next number. 20, 40, 60, 80, ... What will be the eighth number in the pattern?","[""160"",""240"",""320"",""640""]","C","A","modiste","","A","211","algLinUCB_0.9","diff-topics","elementary_mathematics","The following are multiple choice questions about high_school_mathematics.
Colton and his dad bought a gallon of paint that cost $13. They also bought 2 brushes that cost $9 each. What was the total cost, not including tax, of the brushes and the paint they bought?
(A) $22, (B) $24, (C) $31, (D) $35
Answer: C
Solve for y. y – 2 + 3y = 10
(A) 2, (B) 3, (C) 4, (D) 5
Answer: B
Solve 3 over 2 * w = 66.
(A) 33, (B) 44, (C) 88, (D) 99
Answer: B
Write 5.875 as a mixed number or fraction in simplest form.
(A) 5 and 8 over 9, (B) 5 and 7 over 8, (C) 7 over 8, (D) 5 and 87 over 105
Answer: B
Solve the equation 124 = m + 34.
(A) 158, (B) 90, (C) 88, (D) 4,216
Answer: B
Zelma buys p pounds of bananas for 40 cents per pound. She pays the clerk with a twenty-dollar bill. The clerk subtracts the total cost of the bananas from the twenty-dollar bill to determine the amount of change to give Zelma. Which expression represents the amount of change Zelma should receive?
(A) p - 20, (B) 20 - 40p, (C) 20 - 0.40p, (D) 0.40p - 20
Answer: C
Please answer the following question with just the correct option (A, B, C, or D) without any explanation or additional text.
Umi created the number pattern that follows by adding the same amount each time to get the next number. 20, 40, 60, 80, ... What will be the eighth number in the pattern?
(A) '160', (B) '240', (C) '320', (D) '640'
Answer:","","","","","","","","","","","","","","","","","","","","","","feedback_imgs/Correct.png"
"call-function","20","1496856","0.0-4.0-0.5","qfj827myosbwn6m","675c65ec27cd0a6fc7c15701","67b62c430b9240ccd8986e70","67b63d1a7825daf039f650db","3","","","","","","defer","Solve for the sum of all possible values of x when 3^{x^2+4x+4}=9^{x+2}.","[""1"",""2"",""-2"",""0""]","C","C","modiste","","C","184","algLinUCB_0.9","diff-topics","high_school_mathematics","The following are multiple choice questions about high_school_mathematics.
Colton and his dad bought a gallon of paint that cost $13. They also bought 2 brushes that cost $9 each. What was the total cost, not including tax, of the brushes and the paint they bought?
(A) $22, (B) $24, (C) $31, (D) $35
Answer: C
Solve for y. y – 2 + 3y = 10
(A) 2, (B) 3, (C) 4, (D) 5
Answer: B
Solve 3 over 2 * w = 66.
(A) 33, (B) 44, (C) 88, (D) 99
Answer: B
Write 5.875 as a mixed number or fraction in simplest form.
(A) 5 and 8 over 9, (B) 5 and 7 over 8, (C) 7 over 8, (D) 5 and 87 over 105
Answer: B
Solve the equation 124 = m + 34.
(A) 158, (B) 90, (C) 88, (D) 4,216
Answer: B
Zelma buys p pounds of bananas for 40 cents per pound. She pays the clerk with a twenty-dollar bill. The clerk subtracts the total cost of the bananas from the twenty-dollar bill to determine the amount of change to give Zelma. Which expression represents the amount of change Zelma should receive?
(A) p - 20, (B) 20 - 40p, (C) 20 - 0.40p, (D) 0.40p - 20
Answer: C
Please answer the following question with just the correct option (A, B, C, or D) without any explanation or additional text.
Solve for the sum of all possible values of x when 3^{x^2+4x+4}=9^{x+2}.
(A) '1', (B) '2', (C) '-2', (D) '0'
Answer:","","","","","","","","","","","","","","","","","","","","","",""
"survey-html-form","21","1574296","0.0-4.0-1.5","qfj827myosbwn6m","675c65ec27cd0a6fc7c15701","67b62c430b9240ccd8986e70","67b63d1a7825daf039f650db","3","77438.5","","","{""mcAnswer"":""C""}","","","Solve for the sum of all possible values of x when 3^{x^2+4x+4}=9^{x+2}.","[""1"",""2"",""-2"",""0""]","C","C","modiste","","C","184","algLinUCB_0.9","diff-topics","high_school_mathematics","The following are multiple choice questions about high_school_mathematics.
Colton and his dad bought a gallon of paint that cost $13. They also bought 2 brushes that cost $9 each. What was the total cost, not including tax, of the brushes and the paint they bought?
(A) $22, (B) $24, (C) $31, (D) $35
Answer: C
Solve for y. y – 2 + 3y = 10
(A) 2, (B) 3, (C) 4, (D) 5
Answer: B
Solve 3 over 2 * w = 66.
(A) 33, (B) 44, (C) 88, (D) 99
Answer: B
Write 5.875 as a mixed number or fraction in simplest form.
(A) 5 and 8 over 9, (B) 5 and 7 over 8, (C) 7 over 8, (D) 5 and 87 over 105
Answer: B
Solve the equation 124 = m + 34.
(A) 158, (B) 90, (C) 88, (D) 4,216
Answer: B
Zelma buys p pounds of bananas for 40 cents per pound. She pays the clerk with a twenty-dollar bill. The clerk subtracts the total cost of the bananas from the twenty-dollar bill to determine the amount of change to give Zelma. Which expression represents the amount of change Zelma should receive?
(A) p - 20, (B) 20 - 40p, (C) 20 - 0.40p, (D) 0.40p - 20
Answer: C
Please answer the following question with just the correct option (A, B, C, or D) without any explanation or additional text.
Solve for the sum of all possible values of x when 3^{x^2+4x+4}=9^{x+2}.
(A) '1', (B) '2', (C) '-2', (D) '0'
Answer:","","","","","","","","","","","","","","","","","","","","","",""
"","","","","","","","","","","","","","","","","","","","","","","","","","","","","","C","","","","","","","","","","","","","","","","","","",""
"","","","","","","","","","","","","","","","","","","","","","","","","","","","false","0","","false","144","-1","C","true","true","defer","[]","false","0","{""elementary_mathematics"":[""40/50"",""31/50"",""6/7""],""high_school_mathematics"":[""27/50"",""22/51"",""4/6""],""college_mathematics"":[""22/50"",""27/51"",""3/6""]}","{""high_school_mathematics"":false,""elementary_mathematics"":false,""college_mathematics"":false}","You should attempt this problem by yourself","null","null","null","null","true",""
"image-keyboard-response","22","1575811","0.0-4.0-2.5","qfj827myosbwn6m","675c65ec27cd0a6fc7c15701","67b62c430b9240ccd8986e70","67b63d1a7825daf039f650db","3","null","","","null","","","Solve for the sum of all possible values of x when 3^{x^2+4x+4}=9^{x+2}.","[""1"",""2"",""-2"",""0""]","C","C","modiste","","C","184","algLinUCB_0.9","diff-topics","high_school_mathematics","The following are multiple choice questions about high_school_mathematics.
Colton and his dad bought a gallon of paint that cost $13. They also bought 2 brushes that cost $9 each. What was the total cost, not including tax, of the brushes and the paint they bought?
(A) $22, (B) $24, (C) $31, (D) $35
Answer: C
Solve for y. y – 2 + 3y = 10
(A) 2, (B) 3, (C) 4, (D) 5
Answer: B
Solve 3 over 2 * w = 66.
(A) 33, (B) 44, (C) 88, (D) 99
Answer: B
Write 5.875 as a mixed number or fraction in simplest form.
(A) 5 and 8 over 9, (B) 5 and 7 over 8, (C) 7 over 8, (D) 5 and 87 over 105
Answer: B
Solve the equation 124 = m + 34.
(A) 158, (B) 90, (C) 88, (D) 4,216
Answer: B
Zelma buys p pounds of bananas for 40 cents per pound. She pays the clerk with a twenty-dollar bill. The clerk subtracts the total cost of the bananas from the twenty-dollar bill to determine the amount of change to give Zelma. Which expression represents the amount of change Zelma should receive?
(A) p - 20, (B) 20 - 40p, (C) 20 - 0.40p, (D) 0.40p - 20
Answer: C
Please answer the following question with just the correct option (A, B, C, or D) without any explanation or additional text.
Solve for the sum of all possible values of x when 3^{x^2+4x+4}=9^{x+2}.
(A) '1', (B) '2', (C) '-2', (D) '0'
Answer:","","","","","","","","","","","","","","","","","","","","","","feedback_imgs/Correct.png"
"call-function","23","1575811","0.0-4.0-0.6","qfj827myosbwn6m","675c65ec27cd0a6fc7c15701","67b62c430b9240ccd8986e70","67b63d1a7825daf039f650db","3","","","","","","defer","The Mills Library has 1,007,199 books. The Springvale Library has 907,082 books. Which of the following is the best estimate of how many more books the Mills Library has than the Springvale Library?","[""100,000 books"",""80,000 books"",""10,000 books"",""8,000 books""]","A","A","modiste","","A","219","algLinUCB_0.9","diff-topics","elementary_mathematics","The following are multiple choice questions about high_school_mathematics.
Colton and his dad bought a gallon of paint that cost $13. They also bought 2 brushes that cost $9 each. What was the total cost, not including tax, of the brushes and the paint they bought?
(A) $22, (B) $24, (C) $31, (D) $35
Answer: C
Solve for y. y – 2 + 3y = 10
(A) 2, (B) 3, (C) 4, (D) 5
Answer: B
Solve 3 over 2 * w = 66.
(A) 33, (B) 44, (C) 88, (D) 99
Answer: B
Write 5.875 as a mixed number or fraction in simplest form.
(A) 5 and 8 over 9, (B) 5 and 7 over 8, (C) 7 over 8, (D) 5 and 87 over 105
Answer: B
Solve the equation 124 = m + 34.
(A) 158, (B) 90, (C) 88, (D) 4,216
Answer: B
Zelma buys p pounds of bananas for 40 cents per pound. She pays the clerk with a twenty-dollar bill. The clerk subtracts the total cost of the bananas from the twenty-dollar bill to determine the amount of change to give Zelma. Which expression represents the amount of change Zelma should receive?
(A) p - 20, (B) 20 - 40p, (C) 20 - 0.40p, (D) 0.40p - 20
Answer: C
Please answer the following question with just the correct option (A, B, C, or D) without any explanation or additional text.
The Mills Library has 1,007,199 books. The Springvale Library has 907,082 books. Which of the following is the best estimate of how many more books the Mills Library has than the Springvale Library?
(A) '100,000 books', (B) '80,000 books', (C) '10,000 books', (D) '8,000 books'
Answer:","","","","","","","","","","","","","","","","","","","","","",""
"survey-html-form","24","1622766","0.0-4.0-1.6","qfj827myosbwn6m","675c65ec27cd0a6fc7c15701","67b62c430b9240ccd8986e70","67b63d1a7825daf039f650db","3","46953.800000000745","","","{""mcAnswer"":""A""}","","","The Mills Library has 1,007,199 books. The Springvale Library has 907,082 books. Which of the following is the best estimate of how many more books the Mills Library has than the Springvale Library?","[""100,000 books"",""80,000 books"",""10,000 books"",""8,000 books""]","A","A","modiste","","A","219","algLinUCB_0.9","diff-topics","elementary_mathematics","The following are multiple choice questions about high_school_mathematics.
Colton and his dad bought a gallon of paint that cost $13. They also bought 2 brushes that cost $9 each. What was the total cost, not including tax, of the brushes and the paint they bought?
(A) $22, (B) $24, (C) $31, (D) $35
Answer: C
Solve for y. y – 2 + 3y = 10
(A) 2, (B) 3, (C) 4, (D) 5
Answer: B
Solve 3 over 2 * w = 66.
(A) 33, (B) 44, (C) 88, (D) 99
Answer: B
Write 5.875 as a mixed number or fraction in simplest form.
(A) 5 and 8 over 9, (B) 5 and 7 over 8, (C) 7 over 8, (D) 5 and 87 over 105
Answer: B
Solve the equation 124 = m + 34.
(A) 158, (B) 90, (C) 88, (D) 4,216
Answer: B
Zelma buys p pounds of bananas for 40 cents per pound. She pays the clerk with a twenty-dollar bill. The clerk subtracts the total cost of the bananas from the twenty-dollar bill to determine the amount of change to give Zelma. Which expression represents the amount of change Zelma should receive?
(A) p - 20, (B) 20 - 40p, (C) 20 - 0.40p, (D) 0.40p - 20
Answer: C
Please answer the following question with just the correct option (A, B, C, or D) without any explanation or additional text.
The Mills Library has 1,007,199 books. The Springvale Library has 907,082 books. Which of the following is the best estimate of how many more books the Mills Library has than the Springvale Library?
(A) '100,000 books', (B) '80,000 books', (C) '10,000 books', (D) '8,000 books'
Answer:","","","","","","","","","","","","","","","","","","","","","",""
"","","","","","","","","","","","","","","","","","","","","","","","","","","","","","A","","","","","","","","","","","","","","","","","","",""
"","","","","","","","","","","","","","","","","","","","","","","","","","","","false","0","","false","154","-1","A","true","true","defer","[]","false","0","{""elementary_mathematics"":[""40/50"",""31/50"",""7/8""],""high_school_mathematics"":[""27/50"",""22/51"",""4/6""],""college_mathematics"":[""22/50"",""27/51"",""3/6""]}","{""high_school_mathematics"":false,""elementary_mathematics"":false,""college_mathematics"":false}","You should attempt this problem by yourself","null","null","null","null","true",""
"image-keyboard-response","25","1624294","0.0-4.0-2.6","qfj827myosbwn6m","675c65ec27cd0a6fc7c15701","67b62c430b9240ccd8986e70","67b63d1a7825daf039f650db","3","null","","","null","","","The Mills Library has 1,007,199 books. The Springvale Library has 907,082 books. Which of the following is the best estimate of how many more books the Mills Library has than the Springvale Library?","[""100,000 books"",""80,000 books"",""10,000 books"",""8,000 books""]","A","A","modiste","","A","219","algLinUCB_0.9","diff-topics","elementary_mathematics","The following are multiple choice questions about high_school_mathematics.
Colton and his dad bought a gallon of paint that cost $13. They also bought 2 brushes that cost $9 each. What was the total cost, not including tax, of the brushes and the paint they bought?
(A) $22, (B) $24, (C) $31, (D) $35
Answer: C
Solve for y. y – 2 + 3y = 10
(A) 2, (B) 3, (C) 4, (D) 5
Answer: B
Solve 3 over 2 * w = 66.
(A) 33, (B) 44, (C) 88, (D) 99
Answer: B
Write 5.875 as a mixed number or fraction in simplest form.
(A) 5 and 8 over 9, (B) 5 and 7 over 8, (C) 7 over 8, (D) 5 and 87 over 105
Answer: B
Solve the equation 124 = m + 34.
(A) 158, (B) 90, (C) 88, (D) 4,216
Answer: B
Zelma buys p pounds of bananas for 40 cents per pound. She pays the clerk with a twenty-dollar bill. The clerk subtracts the total cost of the bananas from the twenty-dollar bill to determine the amount of change to give Zelma. Which expression represents the amount of change Zelma should receive?
(A) p - 20, (B) 20 - 40p, (C) 20 - 0.40p, (D) 0.40p - 20
Answer: C
Please answer the following question with just the correct option (A, B, C, or D) without any explanation or additional text.
The Mills Library has 1,007,199 books. The Springvale Library has 907,082 books. Which of the following is the best estimate of how many more books the Mills Library has than the Springvale Library?
(A) '100,000 books', (B) '80,000 books', (C) '10,000 books', (D) '8,000 books'
Answer:","","","","","","","","","","","","","","","","","","","","","","feedback_imgs/Correct.png"
"call-function","26","1624294","0.0-4.0-0.7","qfj827myosbwn6m","675c65ec27cd0a6fc7c15701","67b62c430b9240ccd8986e70","67b63d1a7825daf039f650db","3","","","","","","defer","A university's mathematics department has 10 professors and will offer 20 different courses next semester. Each professor will be assigned to teach exactly 2 of the courses, and each course will have exactly one professor assigned to teach it. If any professor can be assigned to teach any course, how many different complete assignments of the 10 professors to the 20 courses are possible?","[""20!/2^(10)"",""10!/2^9"",""10^(20) - 2^(10)"",""10^(20) - 100""]","A","A","modiste","","A","221","algLinUCB_0.9","diff-topics","college_mathematics","The following are multiple choice questions about high_school_mathematics.
Colton and his dad bought a gallon of paint that cost $13. They also bought 2 brushes that cost $9 each. What was the total cost, not including tax, of the brushes and the paint they bought?
(A) $22, (B) $24, (C) $31, (D) $35
Answer: C
Solve for y. y – 2 + 3y = 10
(A) 2, (B) 3, (C) 4, (D) 5
Answer: B
Solve 3 over 2 * w = 66.
(A) 33, (B) 44, (C) 88, (D) 99
Answer: B
Write 5.875 as a mixed number or fraction in simplest form.
(A) 5 and 8 over 9, (B) 5 and 7 over 8, (C) 7 over 8, (D) 5 and 87 over 105
Answer: B
Solve the equation 124 = m + 34.
(A) 158, (B) 90, (C) 88, (D) 4,216
Answer: B
Zelma buys p pounds of bananas for 40 cents per pound. She pays the clerk with a twenty-dollar bill. The clerk subtracts the total cost of the bananas from the twenty-dollar bill to determine the amount of change to give Zelma. Which expression represents the amount of change Zelma should receive?
(A) p - 20, (B) 20 - 40p, (C) 20 - 0.40p, (D) 0.40p - 20
Answer: C
Please answer the following question with just the correct option (A, B, C, or D) without any explanation or additional text.
A university’s mathematics department has 10 professors and will offer 20 different courses next semester. Each professor will be assigned to teach exactly 2 of the courses, and each course will have exactly one professor assigned to teach it. If any professor can be assigned to teach any course, how many different complete assignments of the 10 professors to the 20 courses are possible?
(A) '20!/2^(10)', (B) '10!/2^9', (C) '10^(20) - 2^(10)', (D) '10^(20) - 100'
Answer:","true","2","","","","","","","","","","","","","","","","","","","",""
"survey-html-form","27","1660844","0.0-4.0-1.7","qfj827myosbwn6m","675c65ec27cd0a6fc7c15701","67b62c430b9240ccd8986e70","67b63d1a7825daf039f650db","3","36548.40000000037","","","{""mcAnswer"":""A""}","","","A university's mathematics department has 10 professors and will offer 20 different courses next semester. Each professor will be assigned to teach exactly 2 of the courses, and each course will have exactly one professor assigned to teach it. If any professor can be assigned to teach any course, how many different complete assignments of the 10 professors to the 20 courses are possible?","[""20!/2^(10)"",""10!/2^9"",""10^(20) - 2^(10)"",""10^(20) - 100""]","A","A","modiste","","A","221","algLinUCB_0.9","diff-topics","college_mathematics","The following are multiple choice questions about high_school_mathematics.
Colton and his dad bought a gallon of paint that cost $13. They also bought 2 brushes that cost $9 each. What was the total cost, not including tax, of the brushes and the paint they bought?
(A) $22, (B) $24, (C) $31, (D) $35
Answer: C
Solve for y. y – 2 + 3y = 10
(A) 2, (B) 3, (C) 4, (D) 5
Answer: B
Solve 3 over 2 * w = 66.
(A) 33, (B) 44, (C) 88, (D) 99
Answer: B
Write 5.875 as a mixed number or fraction in simplest form.
(A) 5 and 8 over 9, (B) 5 and 7 over 8, (C) 7 over 8, (D) 5 and 87 over 105
Answer: B
Solve the equation 124 = m + 34.
(A) 158, (B) 90, (C) 88, (D) 4,216
Answer: B
Zelma buys p pounds of bananas for 40 cents per pound. She pays the clerk with a twenty-dollar bill. The clerk subtracts the total cost of the bananas from the twenty-dollar bill to determine the amount of change to give Zelma. Which expression represents the amount of change Zelma should receive?
(A) p - 20, (B) 20 - 40p, (C) 20 - 0.40p, (D) 0.40p - 20
Answer: C
Please answer the following question with just the correct option (A, B, C, or D) without any explanation or additional text.
A university’s mathematics department has 10 professors and will offer 20 different courses next semester. Each professor will be assigned to teach exactly 2 of the courses, and each course will have exactly one professor assigned to teach it. If any professor can be assigned to teach any course, how many different complete assignments of the 10 professors to the 20 courses are possible?
(A) '20!/2^(10)', (B) '10!/2^9', (C) '10^(20) - 2^(10)', (D) '10^(20) - 100'
Answer:","","","","","","","","","","","","","","","","","","","","","",""
"","","","","","","","","","","","","","","","","","","","","","","","","","","","","","A","","","","","","","","","","","","","","","","","","",""
"","","","","","","","","","","","","","","","","","","","","","","","","","","","true","2","","false","161","-1","A","true","true","defer","[]","false","0","{""elementary_mathematics"":[""40/50"",""31/50"",""7/8""],""high_school_mathematics"":[""27/50"",""22/51"",""4/6""],""college_mathematics"":[""22/50"",""28/52"",""3/6""]}","{""high_school_mathematics"":false,""elementary_mathematics"":false,""college_mathematics"":false}","You should outsource this problem to the AI agent","false","null","true","null","null",""
"image-keyboard-response","28","1662373","0.0-4.0-2.7","qfj827myosbwn6m","675c65ec27cd0a6fc7c15701","67b62c430b9240ccd8986e70","67b63d1a7825daf039f650db","3","null","","","null","","","A university's mathematics department has 10 professors and will offer 20 different courses next semester. Each professor will be assigned to teach exactly 2 of the courses, and each course will have exactly one professor assigned to teach it. If any professor can be assigned to teach any course, how many different complete assignments of the 10 professors to the 20 courses are possible?","[""20!/2^(10)"",""10!/2^9"",""10^(20) - 2^(10)"",""10^(20) - 100""]","A","A","modiste","","A","221","algLinUCB_0.9","diff-topics","college_mathematics","The following are multiple choice questions about high_school_mathematics.
Colton and his dad bought a gallon of paint that cost $13. They also bought 2 brushes that cost $9 each. What was the total cost, not including tax, of the brushes and the paint they bought?
(A) $22, (B) $24, (C) $31, (D) $35
Answer: C
Solve for y. y – 2 + 3y = 10
(A) 2, (B) 3, (C) 4, (D) 5
Answer: B
Solve 3 over 2 * w = 66.
(A) 33, (B) 44, (C) 88, (D) 99
Answer: B
Write 5.875 as a mixed number or fraction in simplest form.
(A) 5 and 8 over 9, (B) 5 and 7 over 8, (C) 7 over 8, (D) 5 and 87 over 105
Answer: B
Solve the equation 124 = m + 34.
(A) 158, (B) 90, (C) 88, (D) 4,216
Answer: B
Zelma buys p pounds of bananas for 40 cents per pound. She pays the clerk with a twenty-dollar bill. The clerk subtracts the total cost of the bananas from the twenty-dollar bill to determine the amount of change to give Zelma. Which expression represents the amount of change Zelma should receive?
(A) p - 20, (B) 20 - 40p, (C) 20 - 0.40p, (D) 0.40p - 20
Answer: C
Please answer the following question with just the correct option (A, B, C, or D) without any explanation or additional text.
A university’s mathematics department has 10 professors and will offer 20 different courses next semester. Each professor will be assigned to teach exactly 2 of the courses, and each course will have exactly one professor assigned to teach it. If any professor can be assigned to teach any course, how many different complete assignments of the 10 professors to the 20 courses are possible?
(A) '20!/2^(10)', (B) '10!/2^9', (C) '10^(20) - 2^(10)', (D) '10^(20) - 100'
Answer:","","","","","","","","","","","","","","","","","","","","","","feedback_imgs/Correct.png"
"call-function","29","1662373","0.0-4.0-0.8","qfj827myosbwn6m","675c65ec27cd0a6fc7c15701","67b62c430b9240ccd8986e70","67b63d1a7825daf039f650db","3","","","","","","defer","How many years are there in a decade?","[""5"",""10"",""15"",""20""]","B","B","modiste","","B","201","algLinUCB_0.9","diff-topics","elementary_mathematics","The following are multiple choice questions about high_school_mathematics.
Colton and his dad bought a gallon of paint that cost $13. They also bought 2 brushes that cost $9 each. What was the total cost, not including tax, of the brushes and the paint they bought?
(A) $22, (B) $24, (C) $31, (D) $35
Answer: C
Solve for y. y – 2 + 3y = 10
(A) 2, (B) 3, (C) 4, (D) 5
Answer: B
Solve 3 over 2 * w = 66.
(A) 33, (B) 44, (C) 88, (D) 99
Answer: B
Write 5.875 as a mixed number or fraction in simplest form.
(A) 5 and 8 over 9, (B) 5 and 7 over 8, (C) 7 over 8, (D) 5 and 87 over 105
Answer: B
Solve the equation 124 = m + 34.
(A) 158, (B) 90, (C) 88, (D) 4,216
Answer: B
Zelma buys p pounds of bananas for 40 cents per pound. She pays the clerk with a twenty-dollar bill. The clerk subtracts the total cost of the bananas from the twenty-dollar bill to determine the amount of change to give Zelma. Which expression represents the amount of change Zelma should receive?
(A) p - 20, (B) 20 - 40p, (C) 20 - 0.40p, (D) 0.40p - 20
Answer: C
Please answer the following question with just the correct option (A, B, C, or D) without any explanation or additional text.
How many years are there in a decade?
(A) '5', (B) '10', (C) '15', (D) '20'
Answer:","","","","","","","","","","","","","","","","","","","","","",""
"survey-html-form","30","1673843","0.0-4.0-1.8","qfj827myosbwn6m","675c65ec27cd0a6fc7c15701","67b62c430b9240ccd8986e70","67b63d1a7825daf039f650db","3","11468.5","","","{""mcAnswer"":""B""}","","","How many years are there in a decade?","[""5"",""10"",""15"",""20""]","B","B","modiste","","B","201","algLinUCB_0.9","diff-topics","elementary_mathematics","The following are multiple choice questions about high_school_mathematics.
Colton and his dad bought a gallon of paint that cost $13. They also bought 2 brushes that cost $9 each. What was the total cost, not including tax, of the brushes and the paint they bought?
(A) $22, (B) $24, (C) $31, (D) $35
Answer: C
Solve for y. y – 2 + 3y = 10
(A) 2, (B) 3, (C) 4, (D) 5
Answer: B
Solve 3 over 2 * w = 66.
(A) 33, (B) 44, (C) 88, (D) 99
Answer: B
Write 5.875 as a mixed number or fraction in simplest form.
(A) 5 and 8 over 9, (B) 5 and 7 over 8, (C) 7 over 8, (D) 5 and 87 over 105
Answer: B
Solve the equation 124 = m + 34.
(A) 158, (B) 90, (C) 88, (D) 4,216
Answer: B
Zelma buys p pounds of bananas for 40 cents per pound. She pays the clerk with a twenty-dollar bill. The clerk subtracts the total cost of the bananas from the twenty-dollar bill to determine the amount of change to give Zelma. Which expression represents the amount of change Zelma should receive?
(A) p - 20, (B) 20 - 40p, (C) 20 - 0.40p, (D) 0.40p - 20
Answer: C
Please answer the following question with just the correct option (A, B, C, or D) without any explanation or additional text.
How many years are there in a decade?
(A) '5', (B) '10', (C) '15', (D) '20'
Answer:","","","","","","","","","","","","","","","","","","","","","",""
"","","","","","","","","","","","","","","","","","","","","","","","","","","","","","B","","","","","","","","","","","","","","","","","","",""
"","","","","","","","","","","","","","","","","","","","","","","","","","","","false","0","","false","171","-1","B","true","true","defer","[]","false","0","{""elementary_mathematics"":[""40/50"",""31/50"",""8/9""],""high_school_mathematics"":[""27/50"",""22/51"",""4/6""],""college_mathematics"":[""22/50"",""28/52"",""3/6""]}","{""high_school_mathematics"":false,""elementary_mathematics"":false,""college_mathematics"":false}","You should attempt this problem by yourself","null","null","null","null","true",""
"image-keyboard-response","31","1675372","0.0-4.0-2.8","qfj827myosbwn6m","675c65ec27cd0a6fc7c15701","67b62c430b9240ccd8986e70","67b63d1a7825daf039f650db","3","null","","","null","","","How many years are there in a decade?","[""5"",""10"",""15"",""20""]","B","B","modiste","","B","201","algLinUCB_0.9","diff-topics","elementary_mathematics","The following are multiple choice questions about high_school_mathematics.
Colton and his dad bought a gallon of paint that cost $13. They also bought 2 brushes that cost $9 each. What was the total cost, not including tax, of the brushes and the paint they bought?
(A) $22, (B) $24, (C) $31, (D) $35
Answer: C
Solve for y. y – 2 + 3y = 10
(A) 2, (B) 3, (C) 4, (D) 5
Answer: B
Solve 3 over 2 * w = 66.
(A) 33, (B) 44, (C) 88, (D) 99
Answer: B
Write 5.875 as a mixed number or fraction in simplest form.
(A) 5 and 8 over 9, (B) 5 and 7 over 8, (C) 7 over 8, (D) 5 and 87 over 105
Answer: B
Solve the equation 124 = m + 34.
(A) 158, (B) 90, (C) 88, (D) 4,216
Answer: B
Zelma buys p pounds of bananas for 40 cents per pound. She pays the clerk with a twenty-dollar bill. The clerk subtracts the total cost of the bananas from the twenty-dollar bill to determine the amount of change to give Zelma. Which expression represents the amount of change Zelma should receive?
(A) p - 20, (B) 20 - 40p, (C) 20 - 0.40p, (D) 0.40p - 20
Answer: C
Please answer the following question with just the correct option (A, B, C, or D) without any explanation or additional text.
How many years are there in a decade?
(A) '5', (B) '10', (C) '15', (D) '20'
Answer:","","","","","","","","","","","","","","","","","","","","","","feedback_imgs/Correct.png"
"call-function","32","1675372","0.0-4.0-0.9","qfj827myosbwn6m","675c65ec27cd0a6fc7c15701","67b62c430b9240ccd8986e70","67b63d1a7825daf039f650db","3","","","","","","defer","Mr. Kohlberg owns a flower shop. At the beginning of the day, he had 152 roses. Mr. Kohlberg sold 96 of the roses and then wanted to separate the rest of the roses equally among 8 vases. What will be the total number of roses in each vase?","[""7"",""12"",""48"",""56""]","B","A","modiste","","A","207","algLinUCB_0.9","diff-topics","elementary_mathematics","The following are multiple choice questions about high_school_mathematics.
Colton and his dad bought a gallon of paint that cost $13. They also bought 2 brushes that cost $9 each. What was the total cost, not including tax, of the brushes and the paint they bought?
(A) $22, (B) $24, (C) $31, (D) $35
Answer: C
Solve for y. y – 2 + 3y = 10
(A) 2, (B) 3, (C) 4, (D) 5
Answer: B
Solve 3 over 2 * w = 66.
(A) 33, (B) 44, (C) 88, (D) 99
Answer: B
Write 5.875 as a mixed number or fraction in simplest form.
(A) 5 and 8 over 9, (B) 5 and 7 over 8, (C) 7 over 8, (D) 5 and 87 over 105
Answer: B
Solve the equation 124 = m + 34.
(A) 158, (B) 90, (C) 88, (D) 4,216
Answer: B
Zelma buys p pounds of bananas for 40 cents per pound. She pays the clerk with a twenty-dollar bill. The clerk subtracts the total cost of the bananas from the twenty-dollar bill to determine the amount of change to give Zelma. Which expression represents the amount of change Zelma should receive?
(A) p - 20, (B) 20 - 40p, (C) 20 - 0.40p, (D) 0.40p - 20
Answer: C
Please answer the following question with just the correct option (A, B, C, or D) without any explanation or additional text.
Mr. Kohlberg owns a flower shop. At the beginning of the day, he had 152 roses. Mr. Kohlberg sold 96 of the roses and then wanted to separate the rest of the roses equally among 8 vases. What will be the total number of roses in each vase?
(A) '7', (B) '12', (C) '48', (D) '56'
Answer:","","","","","","","","","","","","","","","","","","","","","",""
"survey-html-form","33","1706334","0.0-4.0-1.9","qfj827myosbwn6m","675c65ec27cd0a6fc7c15701","67b62c430b9240ccd8986e70","67b63d1a7825daf039f650db","3","30960.5","","","{""mcAnswer"":""A""}","","","Mr. Kohlberg owns a flower shop. At the beginning of the day, he had 152 roses. Mr. Kohlberg sold 96 of the roses and then wanted to separate the rest of the roses equally among 8 vases. What will be the total number of roses in each vase?","[""7"",""12"",""48"",""56""]","B","A","modiste","","A","207","algLinUCB_0.9","diff-topics","elementary_mathematics","The following are multiple choice questions about high_school_mathematics.
Colton and his dad bought a gallon of paint that cost $13. They also bought 2 brushes that cost $9 each. What was the total cost, not including tax, of the brushes and the paint they bought?
(A) $22, (B) $24, (C) $31, (D) $35
Answer: C
Solve for y. y – 2 + 3y = 10
(A) 2, (B) 3, (C) 4, (D) 5
Answer: B
Solve 3 over 2 * w = 66.
(A) 33, (B) 44, (C) 88, (D) 99
Answer: B
Write 5.875 as a mixed number or fraction in simplest form.
(A) 5 and 8 over 9, (B) 5 and 7 over 8, (C) 7 over 8, (D) 5 and 87 over 105
Answer: B
Solve the equation 124 = m + 34.
(A) 158, (B) 90, (C) 88, (D) 4,216
Answer: B
Zelma buys p pounds of bananas for 40 cents per pound. She pays the clerk with a twenty-dollar bill. The clerk subtracts the total cost of the bananas from the twenty-dollar bill to determine the amount of change to give Zelma. Which expression represents the amount of change Zelma should receive?
(A) p - 20, (B) 20 - 40p, (C) 20 - 0.40p, (D) 0.40p - 20
Answer: C
Please answer the following question with just the correct option (A, B, C, or D) without any explanation or additional text.
Mr. Kohlberg owns a flower shop. At the beginning of the day, he had 152 roses. Mr. Kohlberg sold 96 of the roses and then wanted to separate the rest of the roses equally among 8 vases. What will be the total number of roses in each vase?
(A) '7', (B) '12', (C) '48', (D) '56'
Answer:","","","","","","","","","","","","","","","","","","","","","",""
"","","","","","","","","","","","","","","","","","","","","","","","","","","","","","A","","","","","","","","","","","","","","","","","","",""
"","","","","","","","","","","","","","","","","","","","","","","","","","","","false","0","","false","181","-1","B","true","false","defer","[]","false","0","{""elementary_mathematics"":[""40/50"",""31/50"",""9/10""],""high_school_mathematics"":[""27/50"",""22/51"",""4/6""],""college_mathematics"":[""22/50"",""28/52"",""3/6""]}","{""high_school_mathematics"":false,""elementary_mathematics"":false,""college_mathematics"":false}","You should attempt this problem by yourself","null","null","null","null","true",""
"image-keyboard-response","34","1707843","0.0-4.0-2.9","qfj827myosbwn6m","675c65ec27cd0a6fc7c15701","67b62c430b9240ccd8986e70","67b63d1a7825daf039f650db","3","null","","","null","","","Mr. Kohlberg owns a flower shop. At the beginning of the day, he had 152 roses. Mr. Kohlberg sold 96 of the roses and then wanted to separate the rest of the roses equally among 8 vases. What will be the total number of roses in each vase?","[""7"",""12"",""48"",""56""]","B","A","modiste","","A","207","algLinUCB_0.9","diff-topics","elementary_mathematics","The following are multiple choice questions about high_school_mathematics.
Colton and his dad bought a gallon of paint that cost $13. They also bought 2 brushes that cost $9 each. What was the total cost, not including tax, of the brushes and the paint they bought?
(A) $22, (B) $24, (C) $31, (D) $35
Answer: C
Solve for y. y – 2 + 3y = 10
(A) 2, (B) 3, (C) 4, (D) 5
Answer: B
Solve 3 over 2 * w = 66.
(A) 33, (B) 44, (C) 88, (D) 99
Answer: B
Write 5.875 as a mixed number or fraction in simplest form.
(A) 5 and 8 over 9, (B) 5 and 7 over 8, (C) 7 over 8, (D) 5 and 87 over 105
Answer: B
Solve the equation 124 = m + 34.
(A) 158, (B) 90, (C) 88, (D) 4,216
Answer: B
Zelma buys p pounds of bananas for 40 cents per pound. She pays the clerk with a twenty-dollar bill. The clerk subtracts the total cost of the bananas from the twenty-dollar bill to determine the amount of change to give Zelma. Which expression represents the amount of change Zelma should receive?
(A) p - 20, (B) 20 - 40p, (C) 20 - 0.40p, (D) 0.40p - 20
Answer: C
Please answer the following question with just the correct option (A, B, C, or D) without any explanation or additional text.
Mr. Kohlberg owns a flower shop. At the beginning of the day, he had 152 roses. Mr. Kohlberg sold 96 of the roses and then wanted to separate the rest of the roses equally among 8 vases. What will be the total number of roses in each vase?
(A) '7', (B) '12', (C) '48', (D) '56'
Answer:","","","","","","","","","","","","","","","","","","","","","","feedback_imgs/Correct.png"
"call-function","35","1707843","0.0-4.0-0.10","qfj827myosbwn6m","675c65ec27cd0a6fc7c15701","67b62c430b9240ccd8986e70","67b63d1a7825daf039f650db","3","","","","","","defer","Evaluate −2(x − 3) for x = 2.","[""−4"",""−2"",""10"",""2""]","B","D","modiste","","D","204","algLinUCB_0.9","diff-topics","elementary_mathematics","The following are multiple choice questions about high_school_mathematics.
Colton and his dad bought a gallon of paint that cost $13. They also bought 2 brushes that cost $9 each. What was the total cost, not including tax, of the brushes and the paint they bought?
(A) $22, (B) $24, (C) $31, (D) $35
Answer: C
Solve for y. y – 2 + 3y = 10
(A) 2, (B) 3, (C) 4, (D) 5
Answer: B
Solve 3 over 2 * w = 66.
(A) 33, (B) 44, (C) 88, (D) 99
Answer: B
Write 5.875 as a mixed number or fraction in simplest form.
(A) 5 and 8 over 9, (B) 5 and 7 over 8, (C) 7 over 8, (D) 5 and 87 over 105
Answer: B
Solve the equation 124 = m + 34.
(A) 158, (B) 90, (C) 88, (D) 4,216
Answer: B
Zelma buys p pounds of bananas for 40 cents per pound. She pays the clerk with a twenty-dollar bill. The clerk subtracts the total cost of the bananas from the twenty-dollar bill to determine the amount of change to give Zelma. Which expression represents the amount of change Zelma should receive?
(A) p - 20, (B) 20 - 40p, (C) 20 - 0.40p, (D) 0.40p - 20
Answer: C
Please answer the following question with just the correct option (A, B, C, or D) without any explanation or additional text.
Evaluate −2(x − 3) for x = 2.
(A) '−4', (B) '−2', (C) '10', (D) '2'
Answer:","","","","","","","","","","","","","","","","","","","","","",""
"survey-html-form","36","1849483","0.0-4.0-1.10","qfj827myosbwn6m","675c65ec27cd0a6fc7c15701","67b62c430b9240ccd8986e70","67b63d1a7825daf039f650db","3","141638.59999999963","","","{""mcAnswer"":""D""}","","","Evaluate −2(x − 3) for x = 2.","[""−4"",""−2"",""10"",""2""]","B","D","modiste","","D","204","algLinUCB_0.9","diff-topics","elementary_mathematics","The following are multiple choice questions about high_school_mathematics.
Colton and his dad bought a gallon of paint that cost $13. They also bought 2 brushes that cost $9 each. What was the total cost, not including tax, of the brushes and the paint they bought?
(A) $22, (B) $24, (C) $31, (D) $35
Answer: C
Solve for y. y – 2 + 3y = 10
(A) 2, (B) 3, (C) 4, (D) 5
Answer: B
Solve 3 over 2 * w = 66.
(A) 33, (B) 44, (C) 88, (D) 99
Answer: B
Write 5.875 as a mixed number or fraction in simplest form.
(A) 5 and 8 over 9, (B) 5 and 7 over 8, (C) 7 over 8, (D) 5 and 87 over 105
Answer: B
Solve the equation 124 = m + 34.
(A) 158, (B) 90, (C) 88, (D) 4,216
Answer: B
Zelma buys p pounds of bananas for 40 cents per pound. She pays the clerk with a twenty-dollar bill. The clerk subtracts the total cost of the bananas from the twenty-dollar bill to determine the amount of change to give Zelma. Which expression represents the amount of change Zelma should receive?
(A) p - 20, (B) 20 - 40p, (C) 20 - 0.40p, (D) 0.40p - 20
Answer: C
Please answer the following question with just the correct option (A, B, C, or D) without any explanation or additional text.
Evaluate −2(x − 3) for x = 2.
(A) '−4', (B) '−2', (C) '10', (D) '2'
Answer:","","","","","","","","","","","","","","","","","","","","","",""
"","","","","","","","","","","","","","","","","","","","","","","","","","","","","","D","","","","","","","","","","","","","","","","","","",""
"","","","","","","","","","","","","","","","","","","","","","","","","","","","false","0","","false","191","-1","B","true","false","defer","[]","false","0","{""elementary_mathematics"":[""40/50"",""31/50"",""10/11""],""high_school_mathematics"":[""27/50"",""22/51"",""4/6""],""college_mathematics"":[""22/50"",""28/52"",""3/6""]}","{""high_school_mathematics"":false,""elementary_mathematics"":false,""college_mathematics"":false}","You should attempt this problem by yourself","null","null","null","null","true",""
"image-keyboard-response","37","1850999","0.0-4.0-2.10","qfj827myosbwn6m","675c65ec27cd0a6fc7c15701","67b62c430b9240ccd8986e70","67b63d1a7825daf039f650db","3","null","","","null","","","Evaluate −2(x − 3) for x = 2.","[""−4"",""−2"",""10"",""2""]","B","D","modiste","","D","204","algLinUCB_0.9","diff-topics","elementary_mathematics","The following are multiple choice questions about high_school_mathematics.
Colton and his dad bought a gallon of paint that cost $13. They also bought 2 brushes that cost $9 each. What was the total cost, not including tax, of the brushes and the paint they bought?
(A) $22, (B) $24, (C) $31, (D) $35
Answer: C
Solve for y. y – 2 + 3y = 10
(A) 2, (B) 3, (C) 4, (D) 5
Answer: B
Solve 3 over 2 * w = 66.
(A) 33, (B) 44, (C) 88, (D) 99
Answer: B
Write 5.875 as a mixed number or fraction in simplest form.
(A) 5 and 8 over 9, (B) 5 and 7 over 8, (C) 7 over 8, (D) 5 and 87 over 105
Answer: B
Solve the equation 124 = m + 34.
(A) 158, (B) 90, (C) 88, (D) 4,216
Answer: B
Zelma buys p pounds of bananas for 40 cents per pound. She pays the clerk with a twenty-dollar bill. The clerk subtracts the total cost of the bananas from the twenty-dollar bill to determine the amount of change to give Zelma. Which expression represents the amount of change Zelma should receive?
(A) p - 20, (B) 20 - 40p, (C) 20 - 0.40p, (D) 0.40p - 20
Answer: C
Please answer the following question with just the correct option (A, B, C, or D) without any explanation or additional text.
Evaluate −2(x − 3) for x = 2.
(A) '−4', (B) '−2', (C) '10', (D) '2'
Answer:","","","","","","","","","","","","","","","","","","","","","","feedback_imgs/Correct.png"
"call-function","38","1850999","0.0-4.0-0.11","qfj827myosbwn6m","675c65ec27cd0a6fc7c15701","67b62c430b9240ccd8986e70","67b63d1a7825daf039f650db","3","","","","","","defer","If x and y are directly proportional and x = 3 when y = 8, what is the value of x when y = 13?","[""0.615"",""4.875"",""15"",""34.667""]","B","B","modiste","","B","186","algLinUCB_0.9","diff-topics","high_school_mathematics","The following are multiple choice questions about high_school_mathematics.
Colton and his dad bought a gallon of paint that cost $13. They also bought 2 brushes that cost $9 each. What was the total cost, not including tax, of the brushes and the paint they bought?
(A) $22, (B) $24, (C) $31, (D) $35
Answer: C
Solve for y. y – 2 + 3y = 10
(A) 2, (B) 3, (C) 4, (D) 5
Answer: B
Solve 3 over 2 * w = 66.
(A) 33, (B) 44, (C) 88, (D) 99
Answer: B
Write 5.875 as a mixed number or fraction in simplest form.
(A) 5 and 8 over 9, (B) 5 and 7 over 8, (C) 7 over 8, (D) 5 and 87 over 105
Answer: B
Solve the equation 124 = m + 34.
(A) 158, (B) 90, (C) 88, (D) 4,216
Answer: B
Zelma buys p pounds of bananas for 40 cents per pound. She pays the clerk with a twenty-dollar bill. The clerk subtracts the total cost of the bananas from the twenty-dollar bill to determine the amount of change to give Zelma. Which expression represents the amount of change Zelma should receive?
(A) p - 20, (B) 20 - 40p, (C) 20 - 0.40p, (D) 0.40p - 20
Answer: C
Please answer the following question with just the correct option (A, B, C, or D) without any explanation or additional text.
If x and y are directly proportional and x = 3 when y = 8, what is the value of x when y = 13?
(A) '0.615', (B) '4.875', (C) '15', (D) '34.667'
Answer:","","","","","","","","","","","","","","","","","","","","","",""
"survey-html-form","39","1899496","0.0-4.0-1.11","qfj827myosbwn6m","675c65ec27cd0a6fc7c15701","67b62c430b9240ccd8986e70","67b63d1a7825daf039f650db","3","48495","","","{""mcAnswer"":""B""}","","","If x and y are directly proportional and x = 3 when y = 8, what is the value of x when y = 13?","[""0.615"",""4.875"",""15"",""34.667""]","B","B","modiste","","B","186","algLinUCB_0.9","diff-topics","high_school_mathematics","The following are multiple choice questions about high_school_mathematics.
Colton and his dad bought a gallon of paint that cost $13. They also bought 2 brushes that cost $9 each. What was the total cost, not including tax, of the brushes and the paint they bought?
(A) $22, (B) $24, (C) $31, (D) $35
Answer: C
Solve for y. y – 2 + 3y = 10
(A) 2, (B) 3, (C) 4, (D) 5
Answer: B
Solve 3 over 2 * w = 66.
(A) 33, (B) 44, (C) 88, (D) 99
Answer: B
Write 5.875 as a mixed number or fraction in simplest form.
(A) 5 and 8 over 9, (B) 5 and 7 over 8, (C) 7 over 8, (D) 5 and 87 over 105
Answer: B
Solve the equation 124 = m + 34.
(A) 158, (B) 90, (C) 88, (D) 4,216
Answer: B
Zelma buys p pounds of bananas for 40 cents per pound. She pays the clerk with a twenty-dollar bill. The clerk subtracts the total cost of the bananas from the twenty-dollar bill to determine the amount of change to give Zelma. Which expression represents the amount of change Zelma should receive?
(A) p - 20, (B) 20 - 40p, (C) 20 - 0.40p, (D) 0.40p - 20
Answer: C
Please answer the following question with just the correct option (A, B, C, or D) without any explanation or additional text.
If x and y are directly proportional and x = 3 when y = 8, what is the value of x when y = 13?
(A) '0.615', (B) '4.875', (C) '15', (D) '34.667'
Answer:","","","","","","","","","","","","","","","","","","","","","",""
"","","","","","","","","","","","","","","","","","","","","","","","","","","","","","B","","","","","","","","","","","","","","","","","","",""
"","","","","","","","","","","","","","","","","","","","","","","","","","","","false","0","","false","201","-1","B","true","true","defer","[]","false","0","{""elementary_mathematics"":[""40/50"",""31/50"",""10/11""],""high_school_mathematics"":[""27/50"",""22/51"",""5/7""],""college_mathematics"":[""22/50"",""28/52"",""3/6""]}","{""high_school_mathematics"":false,""elementary_mathematics"":false,""college_mathematics"":false}","You should attempt this problem by yourself","null","null","null","null","true",""
"image-keyboard-response","40","1901013","0.0-4.0-2.11","qfj827myosbwn6m","675c65ec27cd0a6fc7c15701","67b62c430b9240ccd8986e70","67b63d1a7825daf039f650db","3","null","","","null","","","If x and y are directly proportional and x = 3 when y = 8, what is the value of x when y = 13?","[""0.615"",""4.875"",""15"",""34.667""]","B","B","modiste","","B","186","algLinUCB_0.9","diff-topics","high_school_mathematics","The following are multiple choice questions about high_school_mathematics.
Colton and his dad bought a gallon of paint that cost $13. They also bought 2 brushes that cost $9 each. What was the total cost, not including tax, of the brushes and the paint they bought?
(A) $22, (B) $24, (C) $31, (D) $35
Answer: C
Solve for y. y – 2 + 3y = 10
(A) 2, (B) 3, (C) 4, (D) 5
Answer: B
Solve 3 over 2 * w = 66.
(A) 33, (B) 44, (C) 88, (D) 99
Answer: B
Write 5.875 as a mixed number or fraction in simplest form.
(A) 5 and 8 over 9, (B) 5 and 7 over 8, (C) 7 over 8, (D) 5 and 87 over 105
Answer: B
Solve the equation 124 = m + 34.
(A) 158, (B) 90, (C) 88, (D) 4,216
Answer: B
Zelma buys p pounds of bananas for 40 cents per pound. She pays the clerk with a twenty-dollar bill. The clerk subtracts the total cost of the bananas from the twenty-dollar bill to determine the amount of change to give Zelma. Which expression represents the amount of change Zelma should receive?
(A) p - 20, (B) 20 - 40p, (C) 20 - 0.40p, (D) 0.40p - 20
Answer: C
Please answer the following question with just the correct option (A, B, C, or D) without any explanation or additional text.
If x and y are directly proportional and x = 3 when y = 8, what is the value of x when y = 13?
(A) '0.615', (B) '4.875', (C) '15', (D) '34.667'
Answer:","","","","","","","","","","","","","","","","","","","","","","feedback_imgs/Correct.png"
"call-function","41","1901013","0.0-4.0-0.12","qfj827myosbwn6m","675c65ec27cd0a6fc7c15701","67b62c430b9240ccd8986e70","67b63d1a7825daf039f650db","3","","","","","","defer","Water drips out of a hole at the vertex of an upside down cone at a rate of 3 cm^3 per minute. The
cone's height and radius are 2 cm and 1 cm, respectively. At what rate does the height of the water change
when the water level is half a centimeter below the top of the cone? The volume of a cone is V = (π/3)*r^2*h,
where r is the radius and h is the height of the cone.","[""−48/π cm/min"",""−4/(3π) cm/min"",""−8/(3π) cm/min"",""−16/(3π) cm/min""]","B","D","modiste","","D","230","algLinUCB_0.9","diff-topics","college_mathematics","The following are multiple choice questions about high_school_mathematics.
Colton and his dad bought a gallon of paint that cost $13. They also bought 2 brushes that cost $9 each. What was the total cost, not including tax, of the brushes and the paint they bought?
(A) $22, (B) $24, (C) $31, (D) $35
Answer: C
Solve for y. y – 2 + 3y = 10
(A) 2, (B) 3, (C) 4, (D) 5
Answer: B
Solve 3 over 2 * w = 66.
(A) 33, (B) 44, (C) 88, (D) 99
Answer: B
Write 5.875 as a mixed number or fraction in simplest form.
(A) 5 and 8 over 9, (B) 5 and 7 over 8, (C) 7 over 8, (D) 5 and 87 over 105
Answer: B
Solve the equation 124 = m + 34.
(A) 158, (B) 90, (C) 88, (D) 4,216
Answer: B
Zelma buys p pounds of bananas for 40 cents per pound. She pays the clerk with a twenty-dollar bill. The clerk subtracts the total cost of the bananas from the twenty-dollar bill to determine the amount of change to give Zelma. Which expression represents the amount of change Zelma should receive?
(A) p - 20, (B) 20 - 40p, (C) 20 - 0.40p, (D) 0.40p - 20
Answer: C
Please answer the following question with just the correct option (A, B, C, or D) without any explanation or additional text.
Water drips out of a hole at the vertex of an upside down cone at a rate of 3 cm^3 per minute. The
cone’s height and radius are 2 cm and 1 cm, respectively. At what rate does the height of the water change
when the water level is half a centimeter below the top of the cone? The volume of a cone is V = (π/3)*r^2*h,
where r is the radius and h is the height of the cone.
(A) '−48/π cm/min', (B) '−4/(3π) cm/min', (C) '−8/(3π) cm/min', (D) '−16/(3π) cm/min'
Answer:","true","2","","","","","","","","","","","","","","","","","","","",""
"survey-html-form","42","1940516","0.0-4.0-1.12","qfj827myosbwn6m","675c65ec27cd0a6fc7c15701","67b62c430b9240ccd8986e70","67b63d1a7825daf039f650db","3","39501.90000000037","","","{""mcAnswer"":""B""}","","","Water drips out of a hole at the vertex of an upside down cone at a rate of 3 cm^3 per minute. The
cone's height and radius are 2 cm and 1 cm, respectively. At what rate does the height of the water change
when the water level is half a centimeter below the top of the cone? The volume of a cone is V = (π/3)*r^2*h,
where r is the radius and h is the height of the cone.","[""−48/π cm/min"",""−4/(3π) cm/min"",""−8/(3π) cm/min"",""−16/(3π) cm/min""]","B","D","modiste","","D","230","algLinUCB_0.9","diff-topics","college_mathematics","The following are multiple choice questions about high_school_mathematics.
Colton and his dad bought a gallon of paint that cost $13. They also bought 2 brushes that cost $9 each. What was the total cost, not including tax, of the brushes and the paint they bought?
(A) $22, (B) $24, (C) $31, (D) $35
Answer: C
Solve for y. y – 2 + 3y = 10
(A) 2, (B) 3, (C) 4, (D) 5
Answer: B
Solve 3 over 2 * w = 66.
(A) 33, (B) 44, (C) 88, (D) 99
Answer: B
Write 5.875 as a mixed number or fraction in simplest form.
(A) 5 and 8 over 9, (B) 5 and 7 over 8, (C) 7 over 8, (D) 5 and 87 over 105
Answer: B
Solve the equation 124 = m + 34.
(A) 158, (B) 90, (C) 88, (D) 4,216
Answer: B
Zelma buys p pounds of bananas for 40 cents per pound. She pays the clerk with a twenty-dollar bill. The clerk subtracts the total cost of the bananas from the twenty-dollar bill to determine the amount of change to give Zelma. Which expression represents the amount of change Zelma should receive?
(A) p - 20, (B) 20 - 40p, (C) 20 - 0.40p, (D) 0.40p - 20
Answer: C
Please answer the following question with just the correct option (A, B, C, or D) without any explanation or additional text.
Water drips out of a hole at the vertex of an upside down cone at a rate of 3 cm^3 per minute. The
cone’s height and radius are 2 cm and 1 cm, respectively. At what rate does the height of the water change
when the water level is half a centimeter below the top of the cone? The volume of a cone is V = (π/3)*r^2*h,
where r is the radius and h is the height of the cone.
(A) '−48/π cm/min', (B) '−4/(3π) cm/min', (C) '−8/(3π) cm/min', (D) '−16/(3π) cm/min'
Answer:","","","","","","","","","","","","","","","","","","","","","",""
"","","","","","","","","","","","","","","","","","","","","","","","","","","","","","B","","","","","","","","","","","","","","","","","","",""
"","","","","","","","","","","","","","","","","","","","","","","","","","","","true","2","","false","198","-1","B","false","false","defer","[]","false","0","{""elementary_mathematics"":[""40/50"",""31/50"",""10/11""],""high_school_mathematics"":[""27/50"",""22/51"",""5/7""],""college_mathematics"":[""22/50"",""28/53"",""3/6""]}","{""high_school_mathematics"":false,""elementary_mathematics"":false,""college_mathematics"":false}","You should outsource this problem to the AI agent","false","null","true","null","null",""
"image-keyboard-response","43","1942019","0.0-4.0-2.12","qfj827myosbwn6m","675c65ec27cd0a6fc7c15701","67b62c430b9240ccd8986e70","67b63d1a7825daf039f650db","3","null","","","null","","","Water drips out of a hole at the vertex of an upside down cone at a rate of 3 cm^3 per minute. The
cone's height and radius are 2 cm and 1 cm, respectively. At what rate does the height of the water change
when the water level is half a centimeter below the top of the cone? The volume of a cone is V = (π/3)*r^2*h,
where r is the radius and h is the height of the cone.","[""−48/π cm/min"",""−4/(3π) cm/min"",""−8/(3π) cm/min"",""−16/(3π) cm/min""]","B","D","modiste","","D","230","algLinUCB_0.9","diff-topics","college_mathematics","The following are multiple choice questions about high_school_mathematics.
Colton and his dad bought a gallon of paint that cost $13. They also bought 2 brushes that cost $9 each. What was the total cost, not including tax, of the brushes and the paint they bought?
(A) $22, (B) $24, (C) $31, (D) $35
Answer: C
Solve for y. y – 2 + 3y = 10
(A) 2, (B) 3, (C) 4, (D) 5
Answer: B
Solve 3 over 2 * w = 66.
(A) 33, (B) 44, (C) 88, (D) 99
Answer: B
Write 5.875 as a mixed number or fraction in simplest form.
(A) 5 and 8 over 9, (B) 5 and 7 over 8, (C) 7 over 8, (D) 5 and 87 over 105
Answer: B
Solve the equation 124 = m + 34.
(A) 158, (B) 90, (C) 88, (D) 4,216
Answer: B
Zelma buys p pounds of bananas for 40 cents per pound. She pays the clerk with a twenty-dollar bill. The clerk subtracts the total cost of the bananas from the twenty-dollar bill to determine the amount of change to give Zelma. Which expression represents the amount of change Zelma should receive?
(A) p - 20, (B) 20 - 40p, (C) 20 - 0.40p, (D) 0.40p - 20
Answer: C
Please answer the following question with just the correct option (A, B, C, or D) without any explanation or additional text.
Water drips out of a hole at the vertex of an upside down cone at a rate of 3 cm^3 per minute. The
cone’s height and radius are 2 cm and 1 cm, respectively. At what rate does the height of the water change
when the water level is half a centimeter below the top of the cone? The volume of a cone is V = (π/3)*r^2*h,
where r is the radius and h is the height of the cone.
(A) '−48/π cm/min', (B) '−4/(3π) cm/min', (C) '−8/(3π) cm/min', (D) '−16/(3π) cm/min'
Answer:","","","","","","","","","","","","","","","","","","","","","","feedback_imgs/Incorrect.png"
"call-function","44","1942020","0.0-4.0-0.13","qfj827myosbwn6m","675c65ec27cd0a6fc7c15701","67b62c430b9240ccd8986e70","67b63d1a7825daf039f650db","3","","","","","","defer","Two whole numbers have a least common multiple of 60. Each number is less than or equal to 12. The greatest common factor of the two numbersis 2. What are the two numbers?","[""6 and 10"",""5 and 12"",""10 and 12"",""12 and 15""]","A","C","modiste","","C","203","algLinUCB_0.9","diff-topics","elementary_mathematics","The following are multiple choice questions about high_school_mathematics.
Colton and his dad bought a gallon of paint that cost $13. They also bought 2 brushes that cost $9 each. What was the total cost, not including tax, of the brushes and the paint they bought?
(A) $22, (B) $24, (C) $31, (D) $35
Answer: C
Solve for y. y – 2 + 3y = 10
(A) 2, (B) 3, (C) 4, (D) 5
Answer: B
Solve 3 over 2 * w = 66.
(A) 33, (B) 44, (C) 88, (D) 99
Answer: B
Write 5.875 as a mixed number or fraction in simplest form.
(A) 5 and 8 over 9, (B) 5 and 7 over 8, (C) 7 over 8, (D) 5 and 87 over 105
Answer: B
Solve the equation 124 = m + 34.
(A) 158, (B) 90, (C) 88, (D) 4,216
Answer: B
Zelma buys p pounds of bananas for 40 cents per pound. She pays the clerk with a twenty-dollar bill. The clerk subtracts the total cost of the bananas from the twenty-dollar bill to determine the amount of change to give Zelma. Which expression represents the amount of change Zelma should receive?
(A) p - 20, (B) 20 - 40p, (C) 20 - 0.40p, (D) 0.40p - 20
Answer: C
Please answer the following question with just the correct option (A, B, C, or D) without any explanation or additional text.
Two whole numbers have a least common multiple of 60. Each number is less than or equal to 12. The greatest common factor of the two numbersis 2. What are the two numbers?
(A) '6 and 10', (B) '5 and 12', (C) '10 and 12', (D) '12 and 15'
Answer:","","","","","","","","","","","","","","","","","","","","","",""
"survey-html-form","45","1996249","0.0-4.0-1.13","qfj827myosbwn6m","675c65ec27cd0a6fc7c15701","67b62c430b9240ccd8986e70","67b63d1a7825daf039f650db","3","54228.300000000745","","","{""mcAnswer"":""C""}","","","Two whole numbers have a least common multiple of 60. Each number is less than or equal to 12. The greatest common factor of the two numbersis 2. What are the two numbers?","[""6 and 10"",""5 and 12"",""10 and 12"",""12 and 15""]","A","C","modiste","","C","203","algLinUCB_0.9","diff-topics","elementary_mathematics","The following are multiple choice questions about high_school_mathematics.
Colton and his dad bought a gallon of paint that cost $13. They also bought 2 brushes that cost $9 each. What was the total cost, not including tax, of the brushes and the paint they bought?
(A) $22, (B) $24, (C) $31, (D) $35
Answer: C
Solve for y. y – 2 + 3y = 10
(A) 2, (B) 3, (C) 4, (D) 5
Answer: B
Solve 3 over 2 * w = 66.
(A) 33, (B) 44, (C) 88, (D) 99
Answer: B
Write 5.875 as a mixed number or fraction in simplest form.
(A) 5 and 8 over 9, (B) 5 and 7 over 8, (C) 7 over 8, (D) 5 and 87 over 105
Answer: B
Solve the equation 124 = m + 34.
(A) 158, (B) 90, (C) 88, (D) 4,216
Answer: B
Zelma buys p pounds of bananas for 40 cents per pound. She pays the clerk with a twenty-dollar bill. The clerk subtracts the total cost of the bananas from the twenty-dollar bill to determine the amount of change to give Zelma. Which expression represents the amount of change Zelma should receive?
(A) p - 20, (B) 20 - 40p, (C) 20 - 0.40p, (D) 0.40p - 20
Answer: C
Please answer the following question with just the correct option (A, B, C, or D) without any explanation or additional text.
Two whole numbers have a least common multiple of 60. Each number is less than or equal to 12. The greatest common factor of the two numbersis 2. What are the two numbers?
(A) '6 and 10', (B) '5 and 12', (C) '10 and 12', (D) '12 and 15'
Answer:","","","","","","","","","","","","","","","","","","","","","",""
"","","","","","","","","","","","","","","","","","","","","","","","","","","","","","C","","","","","","","","","","","","","","","","","","",""
"","","","","","","","","","","","","","","","","","","","","","","","","","","","false","0","","false","208","-1","A","true","false","defer","[]","false","0","{""elementary_mathematics"":[""40/50"",""31/50"",""11/12""],""high_school_mathematics"":[""27/50"",""22/51"",""5/7""],""college_mathematics"":[""22/50"",""28/53"",""3/6""]}","{""high_school_mathematics"":false,""elementary_mathematics"":false,""college_mathematics"":false}","You should attempt this problem by yourself","null","null","null","null","true",""
"image-keyboard-response","46","1997763","0.0-4.0-2.13","qfj827myosbwn6m","675c65ec27cd0a6fc7c15701","67b62c430b9240ccd8986e70","67b63d1a7825daf039f650db","3","null","","","null","","","Two whole numbers have a least common multiple of 60. Each number is less than or equal to 12. The greatest common factor of the two numbersis 2. What are the two numbers?","[""6 and 10"",""5 and 12"",""10 and 12"",""12 and 15""]","A","C","modiste","","C","203","algLinUCB_0.9","diff-topics","elementary_mathematics","The following are multiple choice questions about high_school_mathematics.
Colton and his dad bought a gallon of paint that cost $13. They also bought 2 brushes that cost $9 each. What was the total cost, not including tax, of the brushes and the paint they bought?
(A) $22, (B) $24, (C) $31, (D) $35
Answer: C
Solve for y. y – 2 + 3y = 10
(A) 2, (B) 3, (C) 4, (D) 5
Answer: B
Solve 3 over 2 * w = 66.
(A) 33, (B) 44, (C) 88, (D) 99
Answer: B
Write 5.875 as a mixed number or fraction in simplest form.
(A) 5 and 8 over 9, (B) 5 and 7 over 8, (C) 7 over 8, (D) 5 and 87 over 105
Answer: B
Solve the equation 124 = m + 34.
(A) 158, (B) 90, (C) 88, (D) 4,216
Answer: B
Zelma buys p pounds of bananas for 40 cents per pound. She pays the clerk with a twenty-dollar bill. The clerk subtracts the total cost of the bananas from the twenty-dollar bill to determine the amount of change to give Zelma. Which expression represents the amount of change Zelma should receive?
(A) p - 20, (B) 20 - 40p, (C) 20 - 0.40p, (D) 0.40p - 20
Answer: C
Please answer the following question with just the correct option (A, B, C, or D) without any explanation or additional text.
Two whole numbers have a least common multiple of 60. Each number is less than or equal to 12. The greatest common factor of the two numbersis 2. What are the two numbers?
(A) '6 and 10', (B) '5 and 12', (C) '10 and 12', (D) '12 and 15'
Answer:","","","","","","","","","","","","","","","","","","","","","","feedback_imgs/Correct.png"
"call-function","47","1997763","0.0-4.0-0.14","qfj827myosbwn6m","675c65ec27cd0a6fc7c15701","67b62c430b9240ccd8986e70","67b63d1a7825daf039f650db","3","","","","","","defer","Yesterday, Micah ate an even number of strawberries. He also ate an odd number of apples. Which group could represent the strawberries, S, and apples, A, Micah ate yesterday?","[""SSSSS; AAA"",""SSSSS; AAAA"",""SSSSSSSS; AAAA"",""SSSSSSSS; A""]","C","D","modiste","","D","215","algLinUCB_0.9","diff-topics","elementary_mathematics","The following are multiple choice questions about high_school_mathematics.
Colton and his dad bought a gallon of paint that cost $13. They also bought 2 brushes that cost $9 each. What was the total cost, not including tax, of the brushes and the paint they bought?
(A) $22, (B) $24, (C) $31, (D) $35
Answer: C
Solve for y. y – 2 + 3y = 10
(A) 2, (B) 3, (C) 4, (D) 5
Answer: B
Solve 3 over 2 * w = 66.
(A) 33, (B) 44, (C) 88, (D) 99
Answer: B
Write 5.875 as a mixed number or fraction in simplest form.
(A) 5 and 8 over 9, (B) 5 and 7 over 8, (C) 7 over 8, (D) 5 and 87 over 105
Answer: B
Solve the equation 124 = m + 34.
(A) 158, (B) 90, (C) 88, (D) 4,216
Answer: B
Zelma buys p pounds of bananas for 40 cents per pound. She pays the clerk with a twenty-dollar bill. The clerk subtracts the total cost of the bananas from the twenty-dollar bill to determine the amount of change to give Zelma. Which expression represents the amount of change Zelma should receive?
(A) p - 20, (B) 20 - 40p, (C) 20 - 0.40p, (D) 0.40p - 20
Answer: C
Please answer the following question with just the correct option (A, B, C, or D) without any explanation or additional text.
Yesterday, Micah ate an even number of strawberries. He also ate an odd number of apples. Which group could represent the strawberries, S, and apples, A, Micah ate yesterday?
(A) 'SSSSS; AAA', (B) 'SSSSS; AAAA', (C) 'SSSSSSSS; AAAA', (D) 'SSSSSSSS; A'
Answer:","","","","","","","","","","","","","","","","","","","","","",""
"survey-html-form","48","2037776","0.0-4.0-1.14","qfj827myosbwn6m","675c65ec27cd0a6fc7c15701","67b62c430b9240ccd8986e70","67b63d1a7825daf039f650db","3","40011.59999999963","","","{""mcAnswer"":""D""}","","","Yesterday, Micah ate an even number of strawberries. He also ate an odd number of apples. Which group could represent the strawberries, S, and apples, A, Micah ate yesterday?","[""SSSSS; AAA"",""SSSSS; AAAA"",""SSSSSSSS; AAAA"",""SSSSSSSS; A""]","C","D","modiste","","D","215","algLinUCB_0.9","diff-topics","elementary_mathematics","The following are multiple choice questions about high_school_mathematics.
Colton and his dad bought a gallon of paint that cost $13. They also bought 2 brushes that cost $9 each. What was the total cost, not including tax, of the brushes and the paint they bought?
(A) $22, (B) $24, (C) $31, (D) $35
Answer: C
Solve for y. y – 2 + 3y = 10
(A) 2, (B) 3, (C) 4, (D) 5
Answer: B
Solve 3 over 2 * w = 66.
(A) 33, (B) 44, (C) 88, (D) 99
Answer: B
Write 5.875 as a mixed number or fraction in simplest form.
(A) 5 and 8 over 9, (B) 5 and 7 over 8, (C) 7 over 8, (D) 5 and 87 over 105
Answer: B
Solve the equation 124 = m + 34.
(A) 158, (B) 90, (C) 88, (D) 4,216
Answer: B
Zelma buys p pounds of bananas for 40 cents per pound. She pays the clerk with a twenty-dollar bill. The clerk subtracts the total cost of the bananas from the twenty-dollar bill to determine the amount of change to give Zelma. Which expression represents the amount of change Zelma should receive?
(A) p - 20, (B) 20 - 40p, (C) 20 - 0.40p, (D) 0.40p - 20
Answer: C
Please answer the following question with just the correct option (A, B, C, or D) without any explanation or additional text.
Yesterday, Micah ate an even number of strawberries. He also ate an odd number of apples. Which group could represent the strawberries, S, and apples, A, Micah ate yesterday?
(A) 'SSSSS; AAA', (B) 'SSSSS; AAAA', (C) 'SSSSSSSS; AAAA', (D) 'SSSSSSSS; A'
Answer:","","","","","","","","","","","","","","","","","","","","","",""
"","","","","","","","","","","","","","","","","","","","","","","","","","","","","","D","","","","","","","","","","","","","","","","","","",""
