"trial_type","trial_index","time_elapsed","internal_node_id","subject","prolific_id","study_id","session_id","condition","rt","url","view_history","response","question_order","value","question","options","llm_answer","population_answer","task","subj_id","label","example_id","variant","main_variant","topic","prompt","0","btn_clicked","score","timeToClick","modelPred","humanCorrect","modelCorrect","interfaceType","modelPredDist","human_support_used","human_support_clicks","llm_support_used","llm_support_clicks","recommendation_lists","incorrect_answers_by_category","recommendation","LLM_outsourcing_overridden","human_outsourcing_overridden","ai_orch_agreement","human_orch_agreement","self_orch_agreement","stimulus"
"pavlovia","0","1064","0.0-0.0","nkcuudhu5lbklqn","672ecdbeedfeb33b3b552451","67b62c430b9240ccd8986e70","67b6320b6cff4ed56075bbd0","1","","","","","","","","","","","","","","","","","","","","","","","","","","","","","","","","","","","","","","","",""
"external-html","1","17048","0.0-1.0","nkcuudhu5lbklqn","672ecdbeedfeb33b3b552451","67b62c430b9240ccd8986e70","67b6320b6cff4ed56075bbd0","1","15370.20000000298","consent.html","","","","","","","","","","","","","","","","","","","","","","","","","","","","","","","","","","","","","",""
"instructions","2","175358","0.0-2.0-0.0","nkcuudhu5lbklqn","672ecdbeedfeb33b3b552451","67b62c430b9240ccd8986e70","67b6320b6cff4ed56075bbd0","1","158308.59999999404","","[{""page_index"":0,""viewing_time"":10186.39999999106},{""page_index"":1,""viewing_time"":5276.70000000298},{""page_index"":2,""viewing_time"":2994},{""page_index"":1,""viewing_time"":35462.70000000298},{""page_index"":2,""viewing_time"":17171.09999999404},{""page_index"":3,""viewing_time"":25617.80000001192},{""page_index"":4,""viewing_time"":16372.59999999404},{""page_index"":5,""viewing_time"":24980.09999999404},{""page_index"":6,""viewing_time"":2321.5},{""page_index"":7,""viewing_time"":17925.20000000298}]","","","","","","","","","","","","","","","","","","","","","","","","","","","","","","","","","","","","",""
"survey-multi-choice","3","198984","0.0-2.0-1.0","nkcuudhu5lbklqn","672ecdbeedfeb33b3b552451","67b62c430b9240ccd8986e70","67b6320b6cff4ed56075bbd0","1","23623.59999999404","","","{""Q0"":""The answer to a mutliple choice question."",""Q1"":""Typing in a text box.""}","[0,1]","","","","","","","","","","","","","","","","","","","","","","","","","","","","","","","","","","",""
"instructions","4","218857","0.0-2.1-0.1","nkcuudhu5lbklqn","672ecdbeedfeb33b3b552451","67b62c430b9240ccd8986e70","67b6320b6cff4ed56075bbd0","1","19871.09999999404","","[{""page_index"":0,""viewing_time"":2865.5999999940395},{""page_index"":1,""viewing_time"":3851.7999999970198},{""page_index"":2,""viewing_time"":2558.2000000029802},{""page_index"":3,""viewing_time"":2008.1000000089407},{""page_index"":4,""viewing_time"":2091.199999988079},{""page_index"":5,""viewing_time"":2808.4000000059605},{""page_index"":6,""viewing_time"":1649.9000000059605},{""page_index"":7,""viewing_time"":2037.5999999940395}]","","","","","","","","","","","","","","","","","","","","","","","","","","","","","","","","","","","","",""
"survey-multi-choice","5","242505","0.0-2.1-1.1","nkcuudhu5lbklqn","672ecdbeedfeb33b3b552451","67b62c430b9240ccd8986e70","67b6320b6cff4ed56075bbd0","1","23646.70000000298","","","{""Q0"":""The answer to a mutliple choice question."",""Q1"":""Selecting from a dropdown menu.""}","[0,1]","","","","","","","","","","","","","","","","","","","","","","","","","","","","","","","","","","",""
"instructions","6","293077","0.0-2.2-0.2","nkcuudhu5lbklqn","672ecdbeedfeb33b3b552451","67b62c430b9240ccd8986e70","67b6320b6cff4ed56075bbd0","1","50570.5","","[{""page_index"":0,""viewing_time"":21819.5},{""page_index"":1,""viewing_time"":10842.29999999702},{""page_index"":2,""viewing_time"":12419.39999999106},{""page_index"":3,""viewing_time"":2045},{""page_index"":4,""viewing_time"":866.1000000089407},{""page_index"":5,""viewing_time"":648.7000000029802},{""page_index"":6,""viewing_time"":1310.7999999970198},{""page_index"":7,""viewing_time"":618.3999999910593}]","","","","","","","","","","","","","","","","","","","","","","","","","","","","","","","","","","","","",""
"survey-multi-choice","7","300940","0.0-2.2-1.2","nkcuudhu5lbklqn","672ecdbeedfeb33b3b552451","67b62c430b9240ccd8986e70","67b6320b6cff4ed56075bbd0","1","7861.5999999940395","","","{""Q0"":""The answer to a mutliple choice question."",""Q1"":""Clicking on a radio button.""}","[0,1]","","","","","","","","","","","","","","","","","","","","","","","","","","","","","","","","","","",""
"instructions","8","333646","0.0-3.0","nkcuudhu5lbklqn","672ecdbeedfeb33b3b552451","67b62c430b9240ccd8986e70","67b6320b6cff4ed56075bbd0","1","32704.5","","[{""page_index"":0,""viewing_time"":32704}]","","","","","","","","","","","","","","","","","","","","","","","","","","","","","","","","","","","","",""
"call-function","9","333647","0.0-4.0-0.0","nkcuudhu5lbklqn","672ecdbeedfeb33b3b552451","67b62c430b9240ccd8986e70","67b6320b6cff4ed56075bbd0","1","","","","","","defer","What is the smallest positive integer with factors of 16, 15, and 12?","[""240"",""120"",""60"",""111""]","C","A","modiste","","A","77","algLinUCB_0.9","diff-topics","high_school_mathematics","The following are multiple choice questions about high_school_mathematics.
Colton and his dad bought a gallon of paint that cost $13. They also bought 2 brushes that cost $9 each. What was the total cost, not including tax, of the brushes and the paint they bought?
(A) $22, (B) $24, (C) $31, (D) $35
Answer: C
Solve for y. y – 2 + 3y = 10
(A) 2, (B) 3, (C) 4, (D) 5
Answer: B
Solve 3 over 2 * w = 66.
(A) 33, (B) 44, (C) 88, (D) 99
Answer: B
Write 5.875 as a mixed number or fraction in simplest form.
(A) 5 and 8 over 9, (B) 5 and 7 over 8, (C) 7 over 8, (D) 5 and 87 over 105
Answer: B
Solve the equation 124 = m + 34.
(A) 158, (B) 90, (C) 88, (D) 4,216
Answer: B
Zelma buys p pounds of bananas for 40 cents per pound. She pays the clerk with a twenty-dollar bill. The clerk subtracts the total cost of the bananas from the twenty-dollar bill to determine the amount of change to give Zelma. Which expression represents the amount of change Zelma should receive?
(A) p - 20, (B) 20 - 40p, (C) 20 - 0.40p, (D) 0.40p - 20
Answer: C
Please answer the following question with just the correct option (A, B, C, or D) without any explanation or additional text.
What is the smallest positive integer with factors of 16, 15, and 12?
(A) '12', (B) '22', (C) '840', (D) '240'
Answer:","","","","","","","","","","","","","","","","","","","","","",""
"survey-html-form","10","498795","0.0-4.0-1.0","nkcuudhu5lbklqn","672ecdbeedfeb33b3b552451","67b62c430b9240ccd8986e70","67b6320b6cff4ed56075bbd0","1","165142.59999999404","","","{""mcAnswer"":""A""}","","","What is the smallest positive integer with factors of 16, 15, and 12?","[""240"",""120"",""60"",""111""]","C","A","modiste","","A","77","algLinUCB_0.9","diff-topics","high_school_mathematics","The following are multiple choice questions about high_school_mathematics.
Colton and his dad bought a gallon of paint that cost $13. They also bought 2 brushes that cost $9 each. What was the total cost, not including tax, of the brushes and the paint they bought?
(A) $22, (B) $24, (C) $31, (D) $35
Answer: C
Solve for y. y – 2 + 3y = 10
(A) 2, (B) 3, (C) 4, (D) 5
Answer: B
Solve 3 over 2 * w = 66.
(A) 33, (B) 44, (C) 88, (D) 99
Answer: B
Write 5.875 as a mixed number or fraction in simplest form.
(A) 5 and 8 over 9, (B) 5 and 7 over 8, (C) 7 over 8, (D) 5 and 87 over 105
Answer: B
Solve the equation 124 = m + 34.
(A) 158, (B) 90, (C) 88, (D) 4,216
Answer: B
Zelma buys p pounds of bananas for 40 cents per pound. She pays the clerk with a twenty-dollar bill. The clerk subtracts the total cost of the bananas from the twenty-dollar bill to determine the amount of change to give Zelma. Which expression represents the amount of change Zelma should receive?
(A) p - 20, (B) 20 - 40p, (C) 20 - 0.40p, (D) 0.40p - 20
Answer: C
Please answer the following question with just the correct option (A, B, C, or D) without any explanation or additional text.
What is the smallest positive integer with factors of 16, 15, and 12?
(A) '12', (B) '22', (C) '840', (D) '240'
Answer:","","","","","","","","","","","","","","","","","","","","","",""
"","","","","","","","","","","","","","","","","","","","","","","","","","","","A","","","","","","","","","","","","","","","","","","","","",""
"","","","","","","","","","","","","","","","","","","","","","","","","","","","","false","110","-1","C","true","false","defer","[]","false","0","false","0","{""elementary_mathematics"":[""40/50"",""31/50"",""4 / 5""],""high_school_mathematics"":[""27/50"",""22/50"",""4/6""],""college_mathematics"":[""22/50"",""26/50"",""2 / 5""]}","{""high_school_mathematics"":false}","You should attempt this problem by yourself","null","null","null","null","true",""
"image-keyboard-response","11","500300","0.0-4.0-2.0","nkcuudhu5lbklqn","672ecdbeedfeb33b3b552451","67b62c430b9240ccd8986e70","67b6320b6cff4ed56075bbd0","1","null","","","null","","","What is the smallest positive integer with factors of 16, 15, and 12?","[""240"",""120"",""60"",""111""]","C","A","modiste","","A","77","algLinUCB_0.9","diff-topics","high_school_mathematics","The following are multiple choice questions about high_school_mathematics.
Colton and his dad bought a gallon of paint that cost $13. They also bought 2 brushes that cost $9 each. What was the total cost, not including tax, of the brushes and the paint they bought?
(A) $22, (B) $24, (C) $31, (D) $35
Answer: C
Solve for y. y – 2 + 3y = 10
(A) 2, (B) 3, (C) 4, (D) 5
Answer: B
Solve 3 over 2 * w = 66.
(A) 33, (B) 44, (C) 88, (D) 99
Answer: B
Write 5.875 as a mixed number or fraction in simplest form.
(A) 5 and 8 over 9, (B) 5 and 7 over 8, (C) 7 over 8, (D) 5 and 87 over 105
Answer: B
Solve the equation 124 = m + 34.
(A) 158, (B) 90, (C) 88, (D) 4,216
Answer: B
Zelma buys p pounds of bananas for 40 cents per pound. She pays the clerk with a twenty-dollar bill. The clerk subtracts the total cost of the bananas from the twenty-dollar bill to determine the amount of change to give Zelma. Which expression represents the amount of change Zelma should receive?
(A) p - 20, (B) 20 - 40p, (C) 20 - 0.40p, (D) 0.40p - 20
Answer: C
Please answer the following question with just the correct option (A, B, C, or D) without any explanation or additional text.
What is the smallest positive integer with factors of 16, 15, and 12?
(A) '12', (B) '22', (C) '840', (D) '240'
Answer:","","","","","","","","","","","","","","","","","","","","","","feedback_imgs/Correct.png"
"call-function","12","500302","0.0-4.0-0.1","nkcuudhu5lbklqn","672ecdbeedfeb33b3b552451","67b62c430b9240ccd8986e70","67b6320b6cff4ed56075bbd0","1","","","","","","defer","The symbol 5! means 5cdot 4cdot 3cdot 2cdot 1. What is the greatest odd integer that is a factor of 5! ?","[""5"",""3"",""15"",""31""]","C","B","modiste","","C","70","algLinUCB_0.9","diff-topics","high_school_mathematics","The following are multiple choice questions about high_school_mathematics.
Colton and his dad bought a gallon of paint that cost $13. They also bought 2 brushes that cost $9 each. What was the total cost, not including tax, of the brushes and the paint they bought?
(A) $22, (B) $24, (C) $31, (D) $35
Answer: C
Solve for y. y – 2 + 3y = 10
(A) 2, (B) 3, (C) 4, (D) 5
Answer: B
Solve 3 over 2 * w = 66.
(A) 33, (B) 44, (C) 88, (D) 99
Answer: B
Write 5.875 as a mixed number or fraction in simplest form.
(A) 5 and 8 over 9, (B) 5 and 7 over 8, (C) 7 over 8, (D) 5 and 87 over 105
Answer: B
Solve the equation 124 = m + 34.
(A) 158, (B) 90, (C) 88, (D) 4,216
Answer: B
Zelma buys p pounds of bananas for 40 cents per pound. She pays the clerk with a twenty-dollar bill. The clerk subtracts the total cost of the bananas from the twenty-dollar bill to determine the amount of change to give Zelma. Which expression represents the amount of change Zelma should receive?
(A) p - 20, (B) 20 - 40p, (C) 20 - 0.40p, (D) 0.40p - 20
Answer: C
Please answer the following question with just the correct option (A, B, C, or D) without any explanation or additional text.
The symbol 5! means 5cdot 4cdot 3cdot 2cdot 1. What is the greatest odd integer that is a factor of 5! ?
(A) '5', (B) '3', (C) '15', (D) '31'
Answer:","","","","","","","","","","","","","","","","","","","","","",""
"survey-html-form","13","531947","0.0-4.0-1.1","nkcuudhu5lbklqn","672ecdbeedfeb33b3b552451","67b62c430b9240ccd8986e70","67b6320b6cff4ed56075bbd0","1","31634.60000000894","","","{""mcAnswer"":""C""}","","","The symbol 5! means 5cdot 4cdot 3cdot 2cdot 1. What is the greatest odd integer that is a factor of 5! ?","[""5"",""3"",""15"",""31""]","C","B","modiste","","C","70","algLinUCB_0.9","diff-topics","high_school_mathematics","The following are multiple choice questions about high_school_mathematics.
Colton and his dad bought a gallon of paint that cost $13. They also bought 2 brushes that cost $9 each. What was the total cost, not including tax, of the brushes and the paint they bought?
(A) $22, (B) $24, (C) $31, (D) $35
Answer: C
Solve for y. y – 2 + 3y = 10
(A) 2, (B) 3, (C) 4, (D) 5
Answer: B
Solve 3 over 2 * w = 66.
(A) 33, (B) 44, (C) 88, (D) 99
Answer: B
Write 5.875 as a mixed number or fraction in simplest form.
(A) 5 and 8 over 9, (B) 5 and 7 over 8, (C) 7 over 8, (D) 5 and 87 over 105
Answer: B
Solve the equation 124 = m + 34.
(A) 158, (B) 90, (C) 88, (D) 4,216
Answer: B
Zelma buys p pounds of bananas for 40 cents per pound. She pays the clerk with a twenty-dollar bill. The clerk subtracts the total cost of the bananas from the twenty-dollar bill to determine the amount of change to give Zelma. Which expression represents the amount of change Zelma should receive?
(A) p - 20, (B) 20 - 40p, (C) 20 - 0.40p, (D) 0.40p - 20
Answer: C
Please answer the following question with just the correct option (A, B, C, or D) without any explanation or additional text.
The symbol 5! means 5cdot 4cdot 3cdot 2cdot 1. What is the greatest odd integer that is a factor of 5! ?
(A) '5', (B) '3', (C) '15', (D) '31'
Answer:","","","","","","","","","","","","","","","","","","","","","",""
"","","","","","","","","","","","","","","","","","","","","","","","","","","","C","","","","","","","","","","","","","","","","","","","","",""
"","","","","","","","","","","","","","","","","","","","","","","","","","","","","false","120","-1","C","true","true","defer","[]","false","0","false","0","{""elementary_mathematics"":[""40/50"",""31/50"",""4 / 5""],""high_school_mathematics"":[""27/50"",""22/50"",""5/7""],""college_mathematics"":[""22/50"",""26/50"",""2 / 5""]}","{""high_school_mathematics"":false}","You should attempt this problem by yourself","null","null","null","null","true",""
"image-keyboard-response","14","533450","0.0-4.0-2.1","nkcuudhu5lbklqn","672ecdbeedfeb33b3b552451","67b62c430b9240ccd8986e70","67b6320b6cff4ed56075bbd0","1","null","","","null","","","The symbol 5! means 5cdot 4cdot 3cdot 2cdot 1. What is the greatest odd integer that is a factor of 5! ?","[""5"",""3"",""15"",""31""]","C","B","modiste","","C","70","algLinUCB_0.9","diff-topics","high_school_mathematics","The following are multiple choice questions about high_school_mathematics.
Colton and his dad bought a gallon of paint that cost $13. They also bought 2 brushes that cost $9 each. What was the total cost, not including tax, of the brushes and the paint they bought?
(A) $22, (B) $24, (C) $31, (D) $35
Answer: C
Solve for y. y – 2 + 3y = 10
(A) 2, (B) 3, (C) 4, (D) 5
Answer: B
Solve 3 over 2 * w = 66.
(A) 33, (B) 44, (C) 88, (D) 99
Answer: B
Write 5.875 as a mixed number or fraction in simplest form.
(A) 5 and 8 over 9, (B) 5 and 7 over 8, (C) 7 over 8, (D) 5 and 87 over 105
Answer: B
Solve the equation 124 = m + 34.
(A) 158, (B) 90, (C) 88, (D) 4,216
Answer: B
Zelma buys p pounds of bananas for 40 cents per pound. She pays the clerk with a twenty-dollar bill. The clerk subtracts the total cost of the bananas from the twenty-dollar bill to determine the amount of change to give Zelma. Which expression represents the amount of change Zelma should receive?
(A) p - 20, (B) 20 - 40p, (C) 20 - 0.40p, (D) 0.40p - 20
Answer: C
Please answer the following question with just the correct option (A, B, C, or D) without any explanation or additional text.
The symbol 5! means 5cdot 4cdot 3cdot 2cdot 1. What is the greatest odd integer that is a factor of 5! ?
(A) '5', (B) '3', (C) '15', (D) '31'
Answer:","","","","","","","","","","","","","","","","","","","","","","feedback_imgs/Correct.png"
"call-function","15","533452","0.0-4.0-0.2","nkcuudhu5lbklqn","672ecdbeedfeb33b3b552451","67b62c430b9240ccd8986e70","67b6320b6cff4ed56075bbd0","1","","","","","","defer","What is the domain of the function f(x)=x+6/sqrt{x^2-3x-4}?","[""(-4,4)"",""[0,4]"",""(-inf, -1) U (4, inf)"",""(-inf, -1) U (-1, 4) U (4, inf)""]","D","B","modiste","","C","73","algLinUCB_0.9","diff-topics","high_school_mathematics","The following are multiple choice questions about high_school_mathematics.
Colton and his dad bought a gallon of paint that cost $13. They also bought 2 brushes that cost $9 each. What was the total cost, not including tax, of the brushes and the paint they bought?
(A) $22, (B) $24, (C) $31, (D) $35
Answer: C
Solve for y. y – 2 + 3y = 10
(A) 2, (B) 3, (C) 4, (D) 5
Answer: B
Solve 3 over 2 * w = 66.
(A) 33, (B) 44, (C) 88, (D) 99
Answer: B
Write 5.875 as a mixed number or fraction in simplest form.
(A) 5 and 8 over 9, (B) 5 and 7 over 8, (C) 7 over 8, (D) 5 and 87 over 105
Answer: B
Solve the equation 124 = m + 34.
(A) 158, (B) 90, (C) 88, (D) 4,216
Answer: B
Zelma buys p pounds of bananas for 40 cents per pound. She pays the clerk with a twenty-dollar bill. The clerk subtracts the total cost of the bananas from the twenty-dollar bill to determine the amount of change to give Zelma. Which expression represents the amount of change Zelma should receive?
(A) p - 20, (B) 20 - 40p, (C) 20 - 0.40p, (D) 0.40p - 20
Answer: C
Please answer the following question with just the correct option (A, B, C, or D) without any explanation or additional text.
What is the domain of the function f(x)=x+6/sqrt{x^2-3x-4}?
(A) '(-4,4)', (B) '[0,4]', (C) '(-inf, -1) U (4, inf)', (D) '(-inf, -1) U (-1, 4) U (4, inf)'
Answer:","","","","","","","","","","","","","","","","","","","","","",""
"survey-html-form","16","632422","0.0-4.0-1.2","nkcuudhu5lbklqn","672ecdbeedfeb33b3b552451","67b62c430b9240ccd8986e70","67b6320b6cff4ed56075bbd0","1","98960.10000000894","","","{""mcAnswer"":""D""}","","","What is the domain of the function f(x)=x+6/sqrt{x^2-3x-4}?","[""(-4,4)"",""[0,4]"",""(-inf, -1) U (4, inf)"",""(-inf, -1) U (-1, 4) U (4, inf)""]","D","B","modiste","","C","73","algLinUCB_0.9","diff-topics","high_school_mathematics","The following are multiple choice questions about high_school_mathematics.
Colton and his dad bought a gallon of paint that cost $13. They also bought 2 brushes that cost $9 each. What was the total cost, not including tax, of the brushes and the paint they bought?
(A) $22, (B) $24, (C) $31, (D) $35
Answer: C
Solve for y. y – 2 + 3y = 10
(A) 2, (B) 3, (C) 4, (D) 5
Answer: B
Solve 3 over 2 * w = 66.
(A) 33, (B) 44, (C) 88, (D) 99
Answer: B
Write 5.875 as a mixed number or fraction in simplest form.
(A) 5 and 8 over 9, (B) 5 and 7 over 8, (C) 7 over 8, (D) 5 and 87 over 105
Answer: B
Solve the equation 124 = m + 34.
(A) 158, (B) 90, (C) 88, (D) 4,216
Answer: B
Zelma buys p pounds of bananas for 40 cents per pound. She pays the clerk with a twenty-dollar bill. The clerk subtracts the total cost of the bananas from the twenty-dollar bill to determine the amount of change to give Zelma. Which expression represents the amount of change Zelma should receive?
(A) p - 20, (B) 20 - 40p, (C) 20 - 0.40p, (D) 0.40p - 20
Answer: C
Please answer the following question with just the correct option (A, B, C, or D) without any explanation or additional text.
What is the domain of the function f(x)=x+6/sqrt{x^2-3x-4}?
(A) '(-4,4)', (B) '[0,4]', (C) '(-inf, -1) U (4, inf)', (D) '(-inf, -1) U (-1, 4) U (4, inf)'
Answer:","","","","","","","","","","","","","","","","","","","","","",""
"","","","","","","","","","","","","","","","","","","","","","","","","","","","D","","","","","","","","","","","","","","","","","","","","",""
"","","","","","","","","","","","","","","","","","","","","","","","","","","","","false","120","-1","D","false","false","defer","[]","false","0","false","0","{""elementary_mathematics"":[""40/50"",""31/50"",""4 / 5""],""high_school_mathematics"":[""27/50"",""22/50"",""5/8""],""college_mathematics"":[""22/50"",""26/50"",""2 / 5""]}","{""high_school_mathematics"":true}","You should attempt this problem by yourself","null","null","null","null","true",""
"image-keyboard-response","17","633925","0.0-4.0-2.2","nkcuudhu5lbklqn","672ecdbeedfeb33b3b552451","67b62c430b9240ccd8986e70","67b6320b6cff4ed56075bbd0","1","null","","","null","","","What is the domain of the function f(x)=x+6/sqrt{x^2-3x-4}?","[""(-4,4)"",""[0,4]"",""(-inf, -1) U (4, inf)"",""(-inf, -1) U (-1, 4) U (4, inf)""]","D","B","modiste","","C","73","algLinUCB_0.9","diff-topics","high_school_mathematics","The following are multiple choice questions about high_school_mathematics.
Colton and his dad bought a gallon of paint that cost $13. They also bought 2 brushes that cost $9 each. What was the total cost, not including tax, of the brushes and the paint they bought?
(A) $22, (B) $24, (C) $31, (D) $35
Answer: C
Solve for y. y – 2 + 3y = 10
(A) 2, (B) 3, (C) 4, (D) 5
Answer: B
Solve 3 over 2 * w = 66.
(A) 33, (B) 44, (C) 88, (D) 99
Answer: B
Write 5.875 as a mixed number or fraction in simplest form.
(A) 5 and 8 over 9, (B) 5 and 7 over 8, (C) 7 over 8, (D) 5 and 87 over 105
Answer: B
Solve the equation 124 = m + 34.
(A) 158, (B) 90, (C) 88, (D) 4,216
Answer: B
Zelma buys p pounds of bananas for 40 cents per pound. She pays the clerk with a twenty-dollar bill. The clerk subtracts the total cost of the bananas from the twenty-dollar bill to determine the amount of change to give Zelma. Which expression represents the amount of change Zelma should receive?
(A) p - 20, (B) 20 - 40p, (C) 20 - 0.40p, (D) 0.40p - 20
Answer: C
Please answer the following question with just the correct option (A, B, C, or D) without any explanation or additional text.
What is the domain of the function f(x)=x+6/sqrt{x^2-3x-4}?
(A) '(-4,4)', (B) '[0,4]', (C) '(-inf, -1) U (4, inf)', (D) '(-inf, -1) U (-1, 4) U (4, inf)'
Answer:","","","","","","","","","","","","","","","","","","","","","","feedback_imgs/Incorrect.png"
"call-function","18","633925","0.0-4.0-0.3","nkcuudhu5lbklqn","672ecdbeedfeb33b3b552451","67b62c430b9240ccd8986e70","67b6320b6cff4ed56075bbd0","1","","","","","","defer","A relative maximum value of the function y = (ln x)/x is","[""1"",""e"",""2/e"",""1/e""]","D","C","modiste","","D","74","algLinUCB_0.9","diff-topics","high_school_mathematics","The following are multiple choice questions about high_school_mathematics.
Colton and his dad bought a gallon of paint that cost $13. They also bought 2 brushes that cost $9 each. What was the total cost, not including tax, of the brushes and the paint they bought?
(A) $22, (B) $24, (C) $31, (D) $35
Answer: C
Solve for y. y – 2 + 3y = 10
(A) 2, (B) 3, (C) 4, (D) 5
Answer: B
Solve 3 over 2 * w = 66.
(A) 33, (B) 44, (C) 88, (D) 99
Answer: B
Write 5.875 as a mixed number or fraction in simplest form.
(A) 5 and 8 over 9, (B) 5 and 7 over 8, (C) 7 over 8, (D) 5 and 87 over 105
Answer: B
Solve the equation 124 = m + 34.
(A) 158, (B) 90, (C) 88, (D) 4,216
Answer: B
Zelma buys p pounds of bananas for 40 cents per pound. She pays the clerk with a twenty-dollar bill. The clerk subtracts the total cost of the bananas from the twenty-dollar bill to determine the amount of change to give Zelma. Which expression represents the amount of change Zelma should receive?
(A) p - 20, (B) 20 - 40p, (C) 20 - 0.40p, (D) 0.40p - 20
Answer: C
Please answer the following question with just the correct option (A, B, C, or D) without any explanation or additional text.
A relative maximum value of the function y = (ln x)/x is
(A) '1', (B) 'e', (C) '2/e', (D) '1/e'
Answer:","","","","","","","","","","true","2","","","","","","","","","","",""
"survey-html-form","19","700306","0.0-4.0-1.3","nkcuudhu5lbklqn","672ecdbeedfeb33b3b552451","67b62c430b9240ccd8986e70","67b6320b6cff4ed56075bbd0","1","66376.60000000894","","","{""mcAnswer"":""C""}","","","A relative maximum value of the function y = (ln x)/x is","[""1"",""e"",""2/e"",""1/e""]","D","C","modiste","","D","74","algLinUCB_0.9","diff-topics","high_school_mathematics","The following are multiple choice questions about high_school_mathematics.
Colton and his dad bought a gallon of paint that cost $13. They also bought 2 brushes that cost $9 each. What was the total cost, not including tax, of the brushes and the paint they bought?
(A) $22, (B) $24, (C) $31, (D) $35
Answer: C
Solve for y. y – 2 + 3y = 10
(A) 2, (B) 3, (C) 4, (D) 5
Answer: B
Solve 3 over 2 * w = 66.
(A) 33, (B) 44, (C) 88, (D) 99
Answer: B
Write 5.875 as a mixed number or fraction in simplest form.
(A) 5 and 8 over 9, (B) 5 and 7 over 8, (C) 7 over 8, (D) 5 and 87 over 105
Answer: B
Solve the equation 124 = m + 34.
(A) 158, (B) 90, (C) 88, (D) 4,216
Answer: B
Zelma buys p pounds of bananas for 40 cents per pound. She pays the clerk with a twenty-dollar bill. The clerk subtracts the total cost of the bananas from the twenty-dollar bill to determine the amount of change to give Zelma. Which expression represents the amount of change Zelma should receive?
(A) p - 20, (B) 20 - 40p, (C) 20 - 0.40p, (D) 0.40p - 20
Answer: C
Please answer the following question with just the correct option (A, B, C, or D) without any explanation or additional text.
A relative maximum value of the function y = (ln x)/x is
(A) '1', (B) 'e', (C) '2/e', (D) '1/e'
Answer:","","","","","","","","","","","","","","","","","","","","","",""
"","","","","","","","","","","","","","","","","","","","","","","","","","","","C","","","","","","","","","","","","","","","","","","","","",""
"","","","","","","","","","","","","","","","","","","","","","","","","","","","","false","113","-1","D","false","true","defer","[]","true","2","false","0","{""elementary_mathematics"":[""40/50"",""31/50"",""4 / 5""],""high_school_mathematics"":[""27/51"",""22/50"",""5/8""],""college_mathematics"":[""22/50"",""26/50"",""2 / 5""]}","{""high_school_mathematics"":false}","You were wrong by yourself on high_school_mathematics last time. You should outsource this problem to a human agent","null","false","null","true","null",""
"image-keyboard-response","20","701810","0.0-4.0-2.3","nkcuudhu5lbklqn","672ecdbeedfeb33b3b552451","67b62c430b9240ccd8986e70","67b6320b6cff4ed56075bbd0","1","null","","","null","","","A relative maximum value of the function y = (ln x)/x is","[""1"",""e"",""2/e"",""1/e""]","D","C","modiste","","D","74","algLinUCB_0.9","diff-topics","high_school_mathematics","The following are multiple choice questions about high_school_mathematics.
Colton and his dad bought a gallon of paint that cost $13. They also bought 2 brushes that cost $9 each. What was the total cost, not including tax, of the brushes and the paint they bought?
(A) $22, (B) $24, (C) $31, (D) $35
Answer: C
Solve for y. y – 2 + 3y = 10
(A) 2, (B) 3, (C) 4, (D) 5
Answer: B
Solve 3 over 2 * w = 66.
(A) 33, (B) 44, (C) 88, (D) 99
Answer: B
Write 5.875 as a mixed number or fraction in simplest form.
(A) 5 and 8 over 9, (B) 5 and 7 over 8, (C) 7 over 8, (D) 5 and 87 over 105
Answer: B
Solve the equation 124 = m + 34.
(A) 158, (B) 90, (C) 88, (D) 4,216
Answer: B
Zelma buys p pounds of bananas for 40 cents per pound. She pays the clerk with a twenty-dollar bill. The clerk subtracts the total cost of the bananas from the twenty-dollar bill to determine the amount of change to give Zelma. Which expression represents the amount of change Zelma should receive?
(A) p - 20, (B) 20 - 40p, (C) 20 - 0.40p, (D) 0.40p - 20
Answer: C
Please answer the following question with just the correct option (A, B, C, or D) without any explanation or additional text.
A relative maximum value of the function y = (ln x)/x is
(A) '1', (B) 'e', (C) '2/e', (D) '1/e'
Answer:","","","","","","","","","","","","","","","","","","","","","","feedback_imgs/Incorrect.png"
"call-function","21","701810","0.0-4.0-0.4","nkcuudhu5lbklqn","672ecdbeedfeb33b3b552451","67b62c430b9240ccd8986e70","67b6320b6cff4ed56075bbd0","1","","","","","","defer","What expression can be used to show 270,240 written in expanded form?","[""200,000 + 7,000 + 200 + 4"",""200,000 + 7,000 + 200 + 40"",""200,000 + 70,000 + 200 + 40"",""200,000 + 70,000 + 2,000 + 40""]","A","C","modiste","","C","93","algLinUCB_0.9","diff-topics","elementary_mathematics","The following are multiple choice questions about high_school_mathematics.
Colton and his dad bought a gallon of paint that cost $13. They also bought 2 brushes that cost $9 each. What was the total cost, not including tax, of the brushes and the paint they bought?
(A) $22, (B) $24, (C) $31, (D) $35
Answer: C
Solve for y. y – 2 + 3y = 10
(A) 2, (B) 3, (C) 4, (D) 5
Answer: B
Solve 3 over 2 * w = 66.
(A) 33, (B) 44, (C) 88, (D) 99
Answer: B
Write 5.875 as a mixed number or fraction in simplest form.
(A) 5 and 8 over 9, (B) 5 and 7 over 8, (C) 7 over 8, (D) 5 and 87 over 105
Answer: B
Solve the equation 124 = m + 34.
(A) 158, (B) 90, (C) 88, (D) 4,216
Answer: B
Zelma buys p pounds of bananas for 40 cents per pound. She pays the clerk with a twenty-dollar bill. The clerk subtracts the total cost of the bananas from the twenty-dollar bill to determine the amount of change to give Zelma. Which expression represents the amount of change Zelma should receive?
(A) p - 20, (B) 20 - 40p, (C) 20 - 0.40p, (D) 0.40p - 20
Answer: C
Please answer the following question with just the correct option (A, B, C, or D) without any explanation or additional text.
What expression can be used to show 270,240 written in expanded form?
(A) '200,000 + 7,000 + 200 + 4', (B) '200,000 + 7,000 + 200 + 40', (C) '200,000 + 70,000 + 200 + 40', (D) '200,000 + 70,000 + 2,000 + 40'
Answer:","","","","","","","","","","","","","","","","","","","","","",""
"survey-html-form","22","736577","0.0-4.0-1.4","nkcuudhu5lbklqn","672ecdbeedfeb33b3b552451","67b62c430b9240ccd8986e70","67b6320b6cff4ed56075bbd0","1","34762.90000000596","","","{""mcAnswer"":""C""}","","","What expression can be used to show 270,240 written in expanded form?","[""200,000 + 7,000 + 200 + 4"",""200,000 + 7,000 + 200 + 40"",""200,000 + 70,000 + 200 + 40"",""200,000 + 70,000 + 2,000 + 40""]","A","C","modiste","","C","93","algLinUCB_0.9","diff-topics","elementary_mathematics","The following are multiple choice questions about high_school_mathematics.
Colton and his dad bought a gallon of paint that cost $13. They also bought 2 brushes that cost $9 each. What was the total cost, not including tax, of the brushes and the paint they bought?
(A) $22, (B) $24, (C) $31, (D) $35
Answer: C
Solve for y. y – 2 + 3y = 10
(A) 2, (B) 3, (C) 4, (D) 5
Answer: B
Solve 3 over 2 * w = 66.
(A) 33, (B) 44, (C) 88, (D) 99
Answer: B
Write 5.875 as a mixed number or fraction in simplest form.
(A) 5 and 8 over 9, (B) 5 and 7 over 8, (C) 7 over 8, (D) 5 and 87 over 105
Answer: B
Solve the equation 124 = m + 34.
(A) 158, (B) 90, (C) 88, (D) 4,216
Answer: B
Zelma buys p pounds of bananas for 40 cents per pound. She pays the clerk with a twenty-dollar bill. The clerk subtracts the total cost of the bananas from the twenty-dollar bill to determine the amount of change to give Zelma. Which expression represents the amount of change Zelma should receive?
(A) p - 20, (B) 20 - 40p, (C) 20 - 0.40p, (D) 0.40p - 20
Answer: C
Please answer the following question with just the correct option (A, B, C, or D) without any explanation or additional text.
What expression can be used to show 270,240 written in expanded form?
(A) '200,000 + 7,000 + 200 + 4', (B) '200,000 + 7,000 + 200 + 40', (C) '200,000 + 70,000 + 200 + 40', (D) '200,000 + 70,000 + 2,000 + 40'
Answer:","","","","","","","","","","","","","","","","","","","","","",""
"","","","","","","","","","","","","","","","","","","","","","","","","","","","C","","","","","","","","","","","","","","","","","","","","",""
"","","","","","","","","","","","","","","","","","","","","","","","","","","","","false","123","-1","A","true","false","defer","[]","false","0","false","0","{""elementary_mathematics"":[""40/50"",""31/50"",""5/6""],""high_school_mathematics"":[""27/51"",""22/50"",""5/8""],""college_mathematics"":[""22/50"",""26/50"",""2 / 5""]}","{""high_school_mathematics"":false,""elementary_mathematics"":false}","You should attempt this problem by yourself","null","null","null","null","true",""
"image-keyboard-response","23","738081","0.0-4.0-2.4","nkcuudhu5lbklqn","672ecdbeedfeb33b3b552451","67b62c430b9240ccd8986e70","67b6320b6cff4ed56075bbd0","1","null","","","null","","","What expression can be used to show 270,240 written in expanded form?","[""200,000 + 7,000 + 200 + 4"",""200,000 + 7,000 + 200 + 40"",""200,000 + 70,000 + 200 + 40"",""200,000 + 70,000 + 2,000 + 40""]","A","C","modiste","","C","93","algLinUCB_0.9","diff-topics","elementary_mathematics","The following are multiple choice questions about high_school_mathematics.
Colton and his dad bought a gallon of paint that cost $13. They also bought 2 brushes that cost $9 each. What was the total cost, not including tax, of the brushes and the paint they bought?
(A) $22, (B) $24, (C) $31, (D) $35
Answer: C
Solve for y. y – 2 + 3y = 10
(A) 2, (B) 3, (C) 4, (D) 5
Answer: B
Solve 3 over 2 * w = 66.
(A) 33, (B) 44, (C) 88, (D) 99
Answer: B
Write 5.875 as a mixed number or fraction in simplest form.
(A) 5 and 8 over 9, (B) 5 and 7 over 8, (C) 7 over 8, (D) 5 and 87 over 105
Answer: B
Solve the equation 124 = m + 34.
(A) 158, (B) 90, (C) 88, (D) 4,216
Answer: B
Zelma buys p pounds of bananas for 40 cents per pound. She pays the clerk with a twenty-dollar bill. The clerk subtracts the total cost of the bananas from the twenty-dollar bill to determine the amount of change to give Zelma. Which expression represents the amount of change Zelma should receive?
(A) p - 20, (B) 20 - 40p, (C) 20 - 0.40p, (D) 0.40p - 20
Answer: C
Please answer the following question with just the correct option (A, B, C, or D) without any explanation or additional text.
What expression can be used to show 270,240 written in expanded form?
(A) '200,000 + 7,000 + 200 + 4', (B) '200,000 + 7,000 + 200 + 40', (C) '200,000 + 70,000 + 200 + 40', (D) '200,000 + 70,000 + 2,000 + 40'
Answer:","","","","","","","","","","","","","","","","","","","","","","feedback_imgs/Correct.png"
"call-function","24","738082","0.0-4.0-0.5","nkcuudhu5lbklqn","672ecdbeedfeb33b3b552451","67b62c430b9240ccd8986e70","67b6320b6cff4ed56075bbd0","1","","","","","","defer","A worker on an assembly line takes 7 hours to produce 22 parts. At that rate how many parts can she produce in 35 hours?","[""220 parts"",""770 parts"",""4 parts"",""110 parts""]","D","D","modiste","","D","94","algLinUCB_0.9","diff-topics","elementary_mathematics","The following are multiple choice questions about high_school_mathematics.
Colton and his dad bought a gallon of paint that cost $13. They also bought 2 brushes that cost $9 each. What was the total cost, not including tax, of the brushes and the paint they bought?
(A) $22, (B) $24, (C) $31, (D) $35
Answer: C
Solve for y. y – 2 + 3y = 10
(A) 2, (B) 3, (C) 4, (D) 5
Answer: B
Solve 3 over 2 * w = 66.
(A) 33, (B) 44, (C) 88, (D) 99
Answer: B
Write 5.875 as a mixed number or fraction in simplest form.
(A) 5 and 8 over 9, (B) 5 and 7 over 8, (C) 7 over 8, (D) 5 and 87 over 105
Answer: B
Solve the equation 124 = m + 34.
(A) 158, (B) 90, (C) 88, (D) 4,216
Answer: B
Zelma buys p pounds of bananas for 40 cents per pound. She pays the clerk with a twenty-dollar bill. The clerk subtracts the total cost of the bananas from the twenty-dollar bill to determine the amount of change to give Zelma. Which expression represents the amount of change Zelma should receive?
(A) p - 20, (B) 20 - 40p, (C) 20 - 0.40p, (D) 0.40p - 20
Answer: C
Please answer the following question with just the correct option (A, B, C, or D) without any explanation or additional text.
A worker on an assembly line takes 7 hours to produce 22 parts. At that rate how many parts can she produce in 35 hours?
(A) '220 parts', (B) '770 parts', (C) '4 parts', (D) '110 parts'
Answer:","","","","","","","","","","","","","","","","","","","","","",""
"survey-html-form","25","789552","0.0-4.0-1.5","nkcuudhu5lbklqn","672ecdbeedfeb33b3b552451","67b62c430b9240ccd8986e70","67b6320b6cff4ed56075bbd0","1","51459.30000001192","","","{""mcAnswer"":""D""}","","","A worker on an assembly line takes 7 hours to produce 22 parts. At that rate how many parts can she produce in 35 hours?","[""220 parts"",""770 parts"",""4 parts"",""110 parts""]","D","D","modiste","","D","94","algLinUCB_0.9","diff-topics","elementary_mathematics","The following are multiple choice questions about high_school_mathematics.
Colton and his dad bought a gallon of paint that cost $13. They also bought 2 brushes that cost $9 each. What was the total cost, not including tax, of the brushes and the paint they bought?
(A) $22, (B) $24, (C) $31, (D) $35
Answer: C
Solve for y. y – 2 + 3y = 10
(A) 2, (B) 3, (C) 4, (D) 5
Answer: B
Solve 3 over 2 * w = 66.
(A) 33, (B) 44, (C) 88, (D) 99
Answer: B
Write 5.875 as a mixed number or fraction in simplest form.
(A) 5 and 8 over 9, (B) 5 and 7 over 8, (C) 7 over 8, (D) 5 and 87 over 105
Answer: B
Solve the equation 124 = m + 34.
(A) 158, (B) 90, (C) 88, (D) 4,216
Answer: B
Zelma buys p pounds of bananas for 40 cents per pound. She pays the clerk with a twenty-dollar bill. The clerk subtracts the total cost of the bananas from the twenty-dollar bill to determine the amount of change to give Zelma. Which expression represents the amount of change Zelma should receive?
(A) p - 20, (B) 20 - 40p, (C) 20 - 0.40p, (D) 0.40p - 20
Answer: C
Please answer the following question with just the correct option (A, B, C, or D) without any explanation or additional text.
A worker on an assembly line takes 7 hours to produce 22 parts. At that rate how many parts can she produce in 35 hours?
(A) '220 parts', (B) '770 parts', (C) '4 parts', (D) '110 parts'
Answer:","","","","","","","","","","","","","","","","","","","","","",""
"","","","","","","","","","","","","","","","","","","","","","","","","","","","D","","","","","","","","","","","","","","","","","","","","",""
"","","","","","","","","","","","","","","","","","","","","","","","","","","","","false","133","-1","D","true","true","defer","[]","false","0","false","0","{""elementary_mathematics"":[""40/50"",""31/50"",""6/7""],""high_school_mathematics"":[""27/51"",""22/50"",""5/8""],""college_mathematics"":[""22/50"",""26/50"",""2 / 5""]}","{""high_school_mathematics"":false,""elementary_mathematics"":false}","You should attempt this problem by yourself","null","null","null","null","true",""
"image-keyboard-response","26","791056","0.0-4.0-2.5","nkcuudhu5lbklqn","672ecdbeedfeb33b3b552451","67b62c430b9240ccd8986e70","67b6320b6cff4ed56075bbd0","1","null","","","null","","","A worker on an assembly line takes 7 hours to produce 22 parts. At that rate how many parts can she produce in 35 hours?","[""220 parts"",""770 parts"",""4 parts"",""110 parts""]","D","D","modiste","","D","94","algLinUCB_0.9","diff-topics","elementary_mathematics","The following are multiple choice questions about high_school_mathematics.
Colton and his dad bought a gallon of paint that cost $13. They also bought 2 brushes that cost $9 each. What was the total cost, not including tax, of the brushes and the paint they bought?
(A) $22, (B) $24, (C) $31, (D) $35
Answer: C
Solve for y. y – 2 + 3y = 10
(A) 2, (B) 3, (C) 4, (D) 5
Answer: B
Solve 3 over 2 * w = 66.
(A) 33, (B) 44, (C) 88, (D) 99
Answer: B
Write 5.875 as a mixed number or fraction in simplest form.
(A) 5 and 8 over 9, (B) 5 and 7 over 8, (C) 7 over 8, (D) 5 and 87 over 105
Answer: B
Solve the equation 124 = m + 34.
(A) 158, (B) 90, (C) 88, (D) 4,216
Answer: B
Zelma buys p pounds of bananas for 40 cents per pound. She pays the clerk with a twenty-dollar bill. The clerk subtracts the total cost of the bananas from the twenty-dollar bill to determine the amount of change to give Zelma. Which expression represents the amount of change Zelma should receive?
(A) p - 20, (B) 20 - 40p, (C) 20 - 0.40p, (D) 0.40p - 20
Answer: C
Please answer the following question with just the correct option (A, B, C, or D) without any explanation or additional text.
A worker on an assembly line takes 7 hours to produce 22 parts. At that rate how many parts can she produce in 35 hours?
(A) '220 parts', (B) '770 parts', (C) '4 parts', (D) '110 parts'
Answer:","","","","","","","","","","","","","","","","","","","","","","feedback_imgs/Correct.png"
"call-function","27","791057","0.0-4.0-0.6","nkcuudhu5lbklqn","672ecdbeedfeb33b3b552451","67b62c430b9240ccd8986e70","67b6320b6cff4ed56075bbd0","1","","","","","","defer","S(n) is a statement about positive integers n such that whenever S(k) is true, S(k + 1) must also be true. Furthermore, there exists some positive integer n0 such that S(n0) is not true. Of the following, which is the strongest conclusion that can be drawn?","[""S(n0 + 1) is not true."",""S(n0 - 1) is not true."",""S(n) is not true for any n <= n0"",""S(n) is not true for any n >= n0""]","D","B","modiste","","C","110","algLinUCB_0.9","diff-topics","college_mathematics","The following are multiple choice questions about high_school_mathematics.
Colton and his dad bought a gallon of paint that cost $13. They also bought 2 brushes that cost $9 each. What was the total cost, not including tax, of the brushes and the paint they bought?
(A) $22, (B) $24, (C) $31, (D) $35
Answer: C
Solve for y. y – 2 + 3y = 10
(A) 2, (B) 3, (C) 4, (D) 5
Answer: B
Solve 3 over 2 * w = 66.
(A) 33, (B) 44, (C) 88, (D) 99
Answer: B
Write 5.875 as a mixed number or fraction in simplest form.
(A) 5 and 8 over 9, (B) 5 and 7 over 8, (C) 7 over 8, (D) 5 and 87 over 105
Answer: B
Solve the equation 124 = m + 34.
(A) 158, (B) 90, (C) 88, (D) 4,216
Answer: B
Zelma buys p pounds of bananas for 40 cents per pound. She pays the clerk with a twenty-dollar bill. The clerk subtracts the total cost of the bananas from the twenty-dollar bill to determine the amount of change to give Zelma. Which expression represents the amount of change Zelma should receive?
(A) p - 20, (B) 20 - 40p, (C) 20 - 0.40p, (D) 0.40p - 20
Answer: C
Please answer the following question with just the correct option (A, B, C, or D) without any explanation or additional text.
S(n) is a statement about positive integers n such that whenever S(k) is true, S(k + 1) must also be true. Furthermore, there exists some positive integer n0 such that S(n0) is not true. Of the following, which is the strongest conclusion that can be drawn?
(A) 'S(n0 + 1) is not true.', (B) 'S(n0 - 1) is not true.', (C) 'S(n) is not true for any n <= n0', (D) 'S(n) is not true for any n >= n0'
Answer:","","","","","","","","","","","","true","2","","","","","","","","",""
"survey-html-form","28","872553","0.0-4.0-1.6","nkcuudhu5lbklqn","672ecdbeedfeb33b3b552451","67b62c430b9240ccd8986e70","67b6320b6cff4ed56075bbd0","1","81485.39999999106","","","{""mcAnswer"":""D""}","","","S(n) is a statement about positive integers n such that whenever S(k) is true, S(k + 1) must also be true. Furthermore, there exists some positive integer n0 such that S(n0) is not true. Of the following, which is the strongest conclusion that can be drawn?","[""S(n0 + 1) is not true."",""S(n0 - 1) is not true."",""S(n) is not true for any n <= n0"",""S(n) is not true for any n >= n0""]","D","B","modiste","","C","110","algLinUCB_0.9","diff-topics","college_mathematics","The following are multiple choice questions about high_school_mathematics.
Colton and his dad bought a gallon of paint that cost $13. They also bought 2 brushes that cost $9 each. What was the total cost, not including tax, of the brushes and the paint they bought?
(A) $22, (B) $24, (C) $31, (D) $35
Answer: C
Solve for y. y – 2 + 3y = 10
(A) 2, (B) 3, (C) 4, (D) 5
Answer: B
Solve 3 over 2 * w = 66.
(A) 33, (B) 44, (C) 88, (D) 99
Answer: B
Write 5.875 as a mixed number or fraction in simplest form.
(A) 5 and 8 over 9, (B) 5 and 7 over 8, (C) 7 over 8, (D) 5 and 87 over 105
Answer: B
Solve the equation 124 = m + 34.
(A) 158, (B) 90, (C) 88, (D) 4,216
Answer: B
Zelma buys p pounds of bananas for 40 cents per pound. She pays the clerk with a twenty-dollar bill. The clerk subtracts the total cost of the bananas from the twenty-dollar bill to determine the amount of change to give Zelma. Which expression represents the amount of change Zelma should receive?
(A) p - 20, (B) 20 - 40p, (C) 20 - 0.40p, (D) 0.40p - 20
Answer: C
Please answer the following question with just the correct option (A, B, C, or D) without any explanation or additional text.
S(n) is a statement about positive integers n such that whenever S(k) is true, S(k + 1) must also be true. Furthermore, there exists some positive integer n0 such that S(n0) is not true. Of the following, which is the strongest conclusion that can be drawn?
(A) 'S(n0 + 1) is not true.', (B) 'S(n0 - 1) is not true.', (C) 'S(n) is not true for any n <= n0', (D) 'S(n) is not true for any n >= n0'
Answer:","","","","","","","","","","","","","","","","","","","","","",""
"","","","","","","","","","","","","","","","","","","","","","","","","","","","D","","","","","","","","","","","","","","","","","","","","",""
"","","","","","","","","","","","","","","","","","","","","","","","","","","","","false","130","-1","D","false","false","defer","[]","false","0","true","2","{""elementary_mathematics"":[""40/50"",""31/50"",""6/7""],""high_school_mathematics"":[""27/51"",""22/50"",""5/8""],""college_mathematics"":[""22/50"",""26/51"",""2 / 5""]}","{""high_school_mathematics"":false,""elementary_mathematics"":false,""college_mathematics"":false}","You should outsource this problem to the AI agent","false","null","true","null","null",""
"image-keyboard-response","29","874059","0.0-4.0-2.6","nkcuudhu5lbklqn","672ecdbeedfeb33b3b552451","67b62c430b9240ccd8986e70","67b6320b6cff4ed56075bbd0","1","null","","","null","","","S(n) is a statement about positive integers n such that whenever S(k) is true, S(k + 1) must also be true. Furthermore, there exists some positive integer n0 such that S(n0) is not true. Of the following, which is the strongest conclusion that can be drawn?","[""S(n0 + 1) is not true."",""S(n0 - 1) is not true."",""S(n) is not true for any n <= n0"",""S(n) is not true for any n >= n0""]","D","B","modiste","","C","110","algLinUCB_0.9","diff-topics","college_mathematics","The following are multiple choice questions about high_school_mathematics.
Colton and his dad bought a gallon of paint that cost $13. They also bought 2 brushes that cost $9 each. What was the total cost, not including tax, of the brushes and the paint they bought?
(A) $22, (B) $24, (C) $31, (D) $35
Answer: C
Solve for y. y – 2 + 3y = 10
(A) 2, (B) 3, (C) 4, (D) 5
Answer: B
Solve 3 over 2 * w = 66.
(A) 33, (B) 44, (C) 88, (D) 99
Answer: B
Write 5.875 as a mixed number or fraction in simplest form.
(A) 5 and 8 over 9, (B) 5 and 7 over 8, (C) 7 over 8, (D) 5 and 87 over 105
Answer: B
Solve the equation 124 = m + 34.
(A) 158, (B) 90, (C) 88, (D) 4,216
Answer: B
Zelma buys p pounds of bananas for 40 cents per pound. She pays the clerk with a twenty-dollar bill. The clerk subtracts the total cost of the bananas from the twenty-dollar bill to determine the amount of change to give Zelma. Which expression represents the amount of change Zelma should receive?
(A) p - 20, (B) 20 - 40p, (C) 20 - 0.40p, (D) 0.40p - 20
Answer: C
Please answer the following question with just the correct option (A, B, C, or D) without any explanation or additional text.
S(n) is a statement about positive integers n such that whenever S(k) is true, S(k + 1) must also be true. Furthermore, there exists some positive integer n0 such that S(n0) is not true. Of the following, which is the strongest conclusion that can be drawn?
(A) 'S(n0 + 1) is not true.', (B) 'S(n0 - 1) is not true.', (C) 'S(n) is not true for any n <= n0', (D) 'S(n) is not true for any n >= n0'
Answer:","","","","","","","","","","","","","","","","","","","","","","feedback_imgs/Incorrect.png"
"call-function","30","874060","0.0-4.0-0.7","nkcuudhu5lbklqn","672ecdbeedfeb33b3b552451","67b62c430b9240ccd8986e70","67b6320b6cff4ed56075bbd0","1","","","","","","defer","Carlos Montado was born on Saturday, November 9, 2002. On what day of the week will Carlos be 706 days old? (Spell out the entire day of the week.)","[""Friday"",""Thursday"",""Wednesday"",""Tuesday""]","A","A","modiste","","A","69","algLinUCB_0.9","diff-topics","high_school_mathematics","The following are multiple choice questions about high_school_mathematics.
Colton and his dad bought a gallon of paint that cost $13. They also bought 2 brushes that cost $9 each. What was the total cost, not including tax, of the brushes and the paint they bought?
(A) $22, (B) $24, (C) $31, (D) $35
Answer: C
Solve for y. y – 2 + 3y = 10
(A) 2, (B) 3, (C) 4, (D) 5
Answer: B
Solve 3 over 2 * w = 66.
(A) 33, (B) 44, (C) 88, (D) 99
Answer: B
Write 5.875 as a mixed number or fraction in simplest form.
(A) 5 and 8 over 9, (B) 5 and 7 over 8, (C) 7 over 8, (D) 5 and 87 over 105
Answer: B
Solve the equation 124 = m + 34.
(A) 158, (B) 90, (C) 88, (D) 4,216
Answer: B
Zelma buys p pounds of bananas for 40 cents per pound. She pays the clerk with a twenty-dollar bill. The clerk subtracts the total cost of the bananas from the twenty-dollar bill to determine the amount of change to give Zelma. Which expression represents the amount of change Zelma should receive?
(A) p - 20, (B) 20 - 40p, (C) 20 - 0.40p, (D) 0.40p - 20
Answer: C
Please answer the following question with just the correct option (A, B, C, or D) without any explanation or additional text.
Carlos Montado was born on Saturday, November 9, 2002. On what day of the week will Carlos be 706 days old? (Spell out the entire day of the week.)
(A) 'Friday', (B) 'Thursday', (C) 'Wednesday', (D) 'Tuesday'
Answer:","","","","","","","","","","","","","","","","","","","","","",""
"survey-html-form","31","981714","0.0-4.0-1.7","nkcuudhu5lbklqn","672ecdbeedfeb33b3b552451","67b62c430b9240ccd8986e70","67b6320b6cff4ed56075bbd0","1","107643.09999999404","","","{""mcAnswer"":""D""}","","","Carlos Montado was born on Saturday, November 9, 2002. On what day of the week will Carlos be 706 days old? (Spell out the entire day of the week.)","[""Friday"",""Thursday"",""Wednesday"",""Tuesday""]","A","A","modiste","","A","69","algLinUCB_0.9","diff-topics","high_school_mathematics","The following are multiple choice questions about high_school_mathematics.
Colton and his dad bought a gallon of paint that cost $13. They also bought 2 brushes that cost $9 each. What was the total cost, not including tax, of the brushes and the paint they bought?
(A) $22, (B) $24, (C) $31, (D) $35
Answer: C
Solve for y. y – 2 + 3y = 10
(A) 2, (B) 3, (C) 4, (D) 5
Answer: B
Solve 3 over 2 * w = 66.
(A) 33, (B) 44, (C) 88, (D) 99
Answer: B
Write 5.875 as a mixed number or fraction in simplest form.
(A) 5 and 8 over 9, (B) 5 and 7 over 8, (C) 7 over 8, (D) 5 and 87 over 105
Answer: B
Solve the equation 124 = m + 34.
(A) 158, (B) 90, (C) 88, (D) 4,216
Answer: B
Zelma buys p pounds of bananas for 40 cents per pound. She pays the clerk with a twenty-dollar bill. The clerk subtracts the total cost of the bananas from the twenty-dollar bill to determine the amount of change to give Zelma. Which expression represents the amount of change Zelma should receive?
(A) p - 20, (B) 20 - 40p, (C) 20 - 0.40p, (D) 0.40p - 20
Answer: C
Please answer the following question with just the correct option (A, B, C, or D) without any explanation or additional text.
Carlos Montado was born on Saturday, November 9, 2002. On what day of the week will Carlos be 706 days old? (Spell out the entire day of the week.)
(A) 'Friday', (B) 'Thursday', (C) 'Wednesday', (D) 'Tuesday'
Answer:","","","","","","","","","","","","","","","","","","","","","",""
"","","","","","","","","","","","","","","","","","","","","","","","","","","","D","","","","","","","","","","","","","","","","","","","","",""
"","","","","","","","","","","","","","","","","","","","","","","","","","","","","false","130","-1","A","false","true","defer","[]","false","0","false","0","{""elementary_mathematics"":[""40/50"",""31/50"",""6/7""],""high_school_mathematics"":[""27/51"",""22/50"",""5/9""],""college_mathematics"":[""22/50"",""26/51"",""2 / 5""]}","{""high_school_mathematics"":true,""elementary_mathematics"":false,""college_mathematics"":false}","You should attempt this problem by yourself","null","null","null","null","true",""
"image-keyboard-response","32","983218","0.0-4.0-2.7","nkcuudhu5lbklqn","672ecdbeedfeb33b3b552451","67b62c430b9240ccd8986e70","67b6320b6cff4ed56075bbd0","1","null","","","null","","","Carlos Montado was born on Saturday, November 9, 2002. On what day of the week will Carlos be 706 days old? (Spell out the entire day of the week.)","[""Friday"",""Thursday"",""Wednesday"",""Tuesday""]","A","A","modiste","","A","69","algLinUCB_0.9","diff-topics","high_school_mathematics","The following are multiple choice questions about high_school_mathematics.
Colton and his dad bought a gallon of paint that cost $13. They also bought 2 brushes that cost $9 each. What was the total cost, not including tax, of the brushes and the paint they bought?
(A) $22, (B) $24, (C) $31, (D) $35
Answer: C
Solve for y. y – 2 + 3y = 10
(A) 2, (B) 3, (C) 4, (D) 5
Answer: B
Solve 3 over 2 * w = 66.
(A) 33, (B) 44, (C) 88, (D) 99
Answer: B
Write 5.875 as a mixed number or fraction in simplest form.
(A) 5 and 8 over 9, (B) 5 and 7 over 8, (C) 7 over 8, (D) 5 and 87 over 105
Answer: B
Solve the equation 124 = m + 34.
(A) 158, (B) 90, (C) 88, (D) 4,216
Answer: B
Zelma buys p pounds of bananas for 40 cents per pound. She pays the clerk with a twenty-dollar bill. The clerk subtracts the total cost of the bananas from the twenty-dollar bill to determine the amount of change to give Zelma. Which expression represents the amount of change Zelma should receive?
(A) p - 20, (B) 20 - 40p, (C) 20 - 0.40p, (D) 0.40p - 20
Answer: C
Please answer the following question with just the correct option (A, B, C, or D) without any explanation or additional text.
Carlos Montado was born on Saturday, November 9, 2002. On what day of the week will Carlos be 706 days old? (Spell out the entire day of the week.)
(A) 'Friday', (B) 'Thursday', (C) 'Wednesday', (D) 'Tuesday'
Answer:","","","","","","","","","","","","","","","","","","","","","","feedback_imgs/Incorrect.png"
"call-function","33","983220","0.0-4.0-0.8","nkcuudhu5lbklqn","672ecdbeedfeb33b3b552451","67b62c430b9240ccd8986e70","67b6320b6cff4ed56075bbd0","1","","","","","","defer","How many ways are there to put 4 distinguishable balls into 2 indistinguishable boxes?","[""7"",""11"",""16"",""8""]","B","D","modiste","","D","67","algLinUCB_0.9","diff-topics","high_school_mathematics","The following are multiple choice questions about high_school_mathematics.
Colton and his dad bought a gallon of paint that cost $13. They also bought 2 brushes that cost $9 each. What was the total cost, not including tax, of the brushes and the paint they bought?
(A) $22, (B) $24, (C) $31, (D) $35
Answer: C
Solve for y. y – 2 + 3y = 10
(A) 2, (B) 3, (C) 4, (D) 5
Answer: B
Solve 3 over 2 * w = 66.
(A) 33, (B) 44, (C) 88, (D) 99
Answer: B
Write 5.875 as a mixed number or fraction in simplest form.
(A) 5 and 8 over 9, (B) 5 and 7 over 8, (C) 7 over 8, (D) 5 and 87 over 105
Answer: B
Solve the equation 124 = m + 34.
(A) 158, (B) 90, (C) 88, (D) 4,216
Answer: B
Zelma buys p pounds of bananas for 40 cents per pound. She pays the clerk with a twenty-dollar bill. The clerk subtracts the total cost of the bananas from the twenty-dollar bill to determine the amount of change to give Zelma. Which expression represents the amount of change Zelma should receive?
(A) p - 20, (B) 20 - 40p, (C) 20 - 0.40p, (D) 0.40p - 20
Answer: C
Please answer the following question with just the correct option (A, B, C, or D) without any explanation or additional text.
How many ways are there to put 4 distinguishable balls into 2 indistinguishable boxes?
(A) '7', (B) '11', (C) '16', (D) '8'
Answer:","","","","","","","","","","true","2","","","","","","","","","","",""
"survey-html-form","34","1078412","0.0-4.0-1.8","nkcuudhu5lbklqn","672ecdbeedfeb33b3b552451","67b62c430b9240ccd8986e70","67b6320b6cff4ed56075bbd0","1","95181.60000000894","","","{""mcAnswer"":""D""}","","","How many ways are there to put 4 distinguishable balls into 2 indistinguishable boxes?","[""7"",""11"",""16"",""8""]","B","D","modiste","","D","67","algLinUCB_0.9","diff-topics","high_school_mathematics","The following are multiple choice questions about high_school_mathematics.
Colton and his dad bought a gallon of paint that cost $13. They also bought 2 brushes that cost $9 each. What was the total cost, not including tax, of the brushes and the paint they bought?
(A) $22, (B) $24, (C) $31, (D) $35
Answer: C
Solve for y. y – 2 + 3y = 10
(A) 2, (B) 3, (C) 4, (D) 5
Answer: B
Solve 3 over 2 * w = 66.
(A) 33, (B) 44, (C) 88, (D) 99
Answer: B
Write 5.875 as a mixed number or fraction in simplest form.
(A) 5 and 8 over 9, (B) 5 and 7 over 8, (C) 7 over 8, (D) 5 and 87 over 105
Answer: B
Solve the equation 124 = m + 34.
(A) 158, (B) 90, (C) 88, (D) 4,216
Answer: B
Zelma buys p pounds of bananas for 40 cents per pound. She pays the clerk with a twenty-dollar bill. The clerk subtracts the total cost of the bananas from the twenty-dollar bill to determine the amount of change to give Zelma. Which expression represents the amount of change Zelma should receive?
(A) p - 20, (B) 20 - 40p, (C) 20 - 0.40p, (D) 0.40p - 20
Answer: C
Please answer the following question with just the correct option (A, B, C, or D) without any explanation or additional text.
How many ways are there to put 4 distinguishable balls into 2 indistinguishable boxes?
(A) '7', (B) '11', (C) '16', (D) '8'
Answer:","","","","","","","","","","","","","","","","","","","","","",""
"","","","","","","","","","","","","","","","","","","","","","","","","","","","D","","","","","","","","","","","","","","","","","","","","",""
"","","","","","","","","","","","","","","","","","","","","","","","","","","","","false","133","-1","B","true","false","defer","[]","true","2","false","0","{""elementary_mathematics"":[""40/50"",""31/50"",""6/7""],""high_school_mathematics"":[""28/52"",""22/50"",""5/9""],""college_mathematics"":[""22/50"",""26/51"",""2 / 5""]}","{""high_school_mathematics"":false,""elementary_mathematics"":false,""college_mathematics"":false}","You were wrong by yourself on high_school_mathematics last time. You should outsource this problem to a human agent","null","false","null","true","null",""
"image-keyboard-response","35","1079915","0.0-4.0-2.8","nkcuudhu5lbklqn","672ecdbeedfeb33b3b552451","67b62c430b9240ccd8986e70","67b6320b6cff4ed56075bbd0","1","null","","","null","","","How many ways are there to put 4 distinguishable balls into 2 indistinguishable boxes?","[""7"",""11"",""16"",""8""]","B","D","modiste","","D","67","algLinUCB_0.9","diff-topics","high_school_mathematics","The following are multiple choice questions about high_school_mathematics.
Colton and his dad bought a gallon of paint that cost $13. They also bought 2 brushes that cost $9 each. What was the total cost, not including tax, of the brushes and the paint they bought?
(A) $22, (B) $24, (C) $31, (D) $35
Answer: C
Solve for y. y – 2 + 3y = 10
(A) 2, (B) 3, (C) 4, (D) 5
Answer: B
Solve 3 over 2 * w = 66.
(A) 33, (B) 44, (C) 88, (D) 99
Answer: B
Write 5.875 as a mixed number or fraction in simplest form.
(A) 5 and 8 over 9, (B) 5 and 7 over 8, (C) 7 over 8, (D) 5 and 87 over 105
Answer: B
Solve the equation 124 = m + 34.
(A) 158, (B) 90, (C) 88, (D) 4,216
Answer: B
Zelma buys p pounds of bananas for 40 cents per pound. She pays the clerk with a twenty-dollar bill. The clerk subtracts the total cost of the bananas from the twenty-dollar bill to determine the amount of change to give Zelma. Which expression represents the amount of change Zelma should receive?
(A) p - 20, (B) 20 - 40p, (C) 20 - 0.40p, (D) 0.40p - 20
Answer: C
Please answer the following question with just the correct option (A, B, C, or D) without any explanation or additional text.
How many ways are there to put 4 distinguishable balls into 2 indistinguishable boxes?
(A) '7', (B) '11', (C) '16', (D) '8'
Answer:","","","","","","","","","","","","","","","","","","","","","","feedback_imgs/Correct.png"
"call-function","36","1079916","0.0-4.0-0.9","nkcuudhu5lbklqn","672ecdbeedfeb33b3b552451","67b62c430b9240ccd8986e70","67b6320b6cff4ed56075bbd0","1","","","","","","defer","What is the greatest possible area of a triangular region with one vertex at the center of a circle of radius 1 and the other two vertices on the circle?","[""1/2"",""1"",""sqrt(2)"",""pi""]","B","B","modiste","","A","107","algLinUCB_0.9","diff-topics","college_mathematics","The following are multiple choice questions about high_school_mathematics.
Colton and his dad bought a gallon of paint that cost $13. They also bought 2 brushes that cost $9 each. What was the total cost, not including tax, of the brushes and the paint they bought?
(A) $22, (B) $24, (C) $31, (D) $35
Answer: C
Solve for y. y – 2 + 3y = 10
(A) 2, (B) 3, (C) 4, (D) 5
Answer: B
Solve 3 over 2 * w = 66.
(A) 33, (B) 44, (C) 88, (D) 99
Answer: B
Write 5.875 as a mixed number or fraction in simplest form.
(A) 5 and 8 over 9, (B) 5 and 7 over 8, (C) 7 over 8, (D) 5 and 87 over 105
Answer: B
Solve the equation 124 = m + 34.
(A) 158, (B) 90, (C) 88, (D) 4,216
Answer: B
Zelma buys p pounds of bananas for 40 cents per pound. She pays the clerk with a twenty-dollar bill. The clerk subtracts the total cost of the bananas from the twenty-dollar bill to determine the amount of change to give Zelma. Which expression represents the amount of change Zelma should receive?
(A) p - 20, (B) 20 - 40p, (C) 20 - 0.40p, (D) 0.40p - 20
Answer: C
Please answer the following question with just the correct option (A, B, C, or D) without any explanation or additional text.
What is the greatest possible area of a triangular region with one vertex at the center of a circle of radius 1 and the other two vertices on the circle?
(A) '1/2', (B) '1', (C) 'sqrt(2)', (D) 'pi'
Answer:","","","","","","","","","","","","","","","","","","","","","",""
"survey-html-form","37","1109861","0.0-4.0-1.9","nkcuudhu5lbklqn","672ecdbeedfeb33b3b552451","67b62c430b9240ccd8986e70","67b6320b6cff4ed56075bbd0","1","29934.09999999404","","","{""mcAnswer"":""C""}","","","What is the greatest possible area of a triangular region with one vertex at the center of a circle of radius 1 and the other two vertices on the circle?","[""1/2"",""1"",""sqrt(2)"",""pi""]","B","B","modiste","","A","107","algLinUCB_0.9","diff-topics","college_mathematics","The following are multiple choice questions about high_school_mathematics.
Colton and his dad bought a gallon of paint that cost $13. They also bought 2 brushes that cost $9 each. What was the total cost, not including tax, of the brushes and the paint they bought?
(A) $22, (B) $24, (C) $31, (D) $35
Answer: C
Solve for y. y – 2 + 3y = 10
(A) 2, (B) 3, (C) 4, (D) 5
Answer: B
Solve 3 over 2 * w = 66.
(A) 33, (B) 44, (C) 88, (D) 99
Answer: B
Write 5.875 as a mixed number or fraction in simplest form.
(A) 5 and 8 over 9, (B) 5 and 7 over 8, (C) 7 over 8, (D) 5 and 87 over 105
Answer: B
Solve the equation 124 = m + 34.
(A) 158, (B) 90, (C) 88, (D) 4,216
Answer: B
Zelma buys p pounds of bananas for 40 cents per pound. She pays the clerk with a twenty-dollar bill. The clerk subtracts the total cost of the bananas from the twenty-dollar bill to determine the amount of change to give Zelma. Which expression represents the amount of change Zelma should receive?
(A) p - 20, (B) 20 - 40p, (C) 20 - 0.40p, (D) 0.40p - 20
Answer: C
Please answer the following question with just the correct option (A, B, C, or D) without any explanation or additional text.
What is the greatest possible area of a triangular region with one vertex at the center of a circle of radius 1 and the other two vertices on the circle?
(A) '1/2', (B) '1', (C) 'sqrt(2)', (D) 'pi'
Answer:","","","","","","","","","","","","","","","","","","","","","",""
"","","","","","","","","","","","","","","","","","","","","","","","","","","","C","","","","","","","","","","","","","","","","","","","","",""
"","","","","","","","","","","","","","","","","","","","","","","","","","","","","false","133","-1","B","false","false","defer","[]","false","0","false","0","{""elementary_mathematics"":[""40/50"",""31/50"",""6/7""],""high_school_mathematics"":[""28/52"",""22/50"",""5/9""],""college_mathematics"":[""22/50"",""26/51"",""2/6""]}","{""high_school_mathematics"":false,""elementary_mathematics"":false,""college_mathematics"":true}","You should outsource this problem to the AI agent","null","null","false","null","null",""
"image-keyboard-response","38","1111364","0.0-4.0-2.9","nkcuudhu5lbklqn","672ecdbeedfeb33b3b552451","67b62c430b9240ccd8986e70","67b6320b6cff4ed56075bbd0","1","null","","","null","","","What is the greatest possible area of a triangular region with one vertex at the center of a circle of radius 1 and the other two vertices on the circle?","[""1/2"",""1"",""sqrt(2)"",""pi""]","B","B","modiste","","A","107","algLinUCB_0.9","diff-topics","college_mathematics","The following are multiple choice questions about high_school_mathematics.
Colton and his dad bought a gallon of paint that cost $13. They also bought 2 brushes that cost $9 each. What was the total cost, not including tax, of the brushes and the paint they bought?
(A) $22, (B) $24, (C) $31, (D) $35
Answer: C
Solve for y. y – 2 + 3y = 10
(A) 2, (B) 3, (C) 4, (D) 5
Answer: B
Solve 3 over 2 * w = 66.
(A) 33, (B) 44, (C) 88, (D) 99
Answer: B
Write 5.875 as a mixed number or fraction in simplest form.
(A) 5 and 8 over 9, (B) 5 and 7 over 8, (C) 7 over 8, (D) 5 and 87 over 105
Answer: B
Solve the equation 124 = m + 34.
(A) 158, (B) 90, (C) 88, (D) 4,216
Answer: B
Zelma buys p pounds of bananas for 40 cents per pound. She pays the clerk with a twenty-dollar bill. The clerk subtracts the total cost of the bananas from the twenty-dollar bill to determine the amount of change to give Zelma. Which expression represents the amount of change Zelma should receive?
(A) p - 20, (B) 20 - 40p, (C) 20 - 0.40p, (D) 0.40p - 20
Answer: C
Please answer the following question with just the correct option (A, B, C, or D) without any explanation or additional text.
What is the greatest possible area of a triangular region with one vertex at the center of a circle of radius 1 and the other two vertices on the circle?
(A) '1/2', (B) '1', (C) 'sqrt(2)', (D) 'pi'
Answer:","","","","","","","","","","","","","","","","","","","","","","feedback_imgs/Incorrect.png"
"call-function","39","1111365","0.0-4.0-0.10","nkcuudhu5lbklqn","672ecdbeedfeb33b3b552451","67b62c430b9240ccd8986e70","67b6320b6cff4ed56075bbd0","1","","","","","","defer","Let f(x,y) = x^2 - 2xy + y^3 for all real x and y. Which of the following is true?","[""f has all of its relative extrema on the line x = y."",""f has all of its relative extrema on the parabola x = y^2."",""f has a relative minimum at (0, 0)."",""f has an absolute minimum at (2/3, 2/3).""]","C","B","modiste","","A","108","algLinUCB_0.9","diff-topics","college_mathematics","The following are multiple choice questions about high_school_mathematics.
Colton and his dad bought a gallon of paint that cost $13. They also bought 2 brushes that cost $9 each. What was the total cost, not including tax, of the brushes and the paint they bought?
(A) $22, (B) $24, (C) $31, (D) $35
Answer: C
Solve for y. y – 2 + 3y = 10
(A) 2, (B) 3, (C) 4, (D) 5
Answer: B
Solve 3 over 2 * w = 66.
(A) 33, (B) 44, (C) 88, (D) 99
Answer: B
Write 5.875 as a mixed number or fraction in simplest form.
(A) 5 and 8 over 9, (B) 5 and 7 over 8, (C) 7 over 8, (D) 5 and 87 over 105
Answer: B
Solve the equation 124 = m + 34.
(A) 158, (B) 90, (C) 88, (D) 4,216
Answer: B
Zelma buys p pounds of bananas for 40 cents per pound. She pays the clerk with a twenty-dollar bill. The clerk subtracts the total cost of the bananas from the twenty-dollar bill to determine the amount of change to give Zelma. Which expression represents the amount of change Zelma should receive?
(A) p - 20, (B) 20 - 40p, (C) 20 - 0.40p, (D) 0.40p - 20
Answer: C
Please answer the following question with just the correct option (A, B, C, or D) without any explanation or additional text.
Let f(x,y) = x^2 - 2xy + y^3 for all real x and y. Which of the following is true?
(A) 'f has all of its relative extrema on the line x = y.', (B) 'f has all of its relative extrema on the parabola x = y^2.', (C) 'f has a relative minimum at (0, 0).', (D) 'f has an absolute minimum at (2/3, 2/3).'
Answer:","","","","","","","","","","true","2","","","","","","","","","","",""
"survey-html-form","40","1181971","0.0-4.0-1.10","nkcuudhu5lbklqn","672ecdbeedfeb33b3b552451","67b62c430b9240ccd8986e70","67b6320b6cff4ed56075bbd0","1","70598.79999999702","","","{""mcAnswer"":""B""}","","","Let f(x,y) = x^2 - 2xy + y^3 for all real x and y. Which of the following is true?","[""f has all of its relative extrema on the line x = y."",""f has all of its relative extrema on the parabola x = y^2."",""f has a relative minimum at (0, 0)."",""f has an absolute minimum at (2/3, 2/3).""]","C","B","modiste","","A","108","algLinUCB_0.9","diff-topics","college_mathematics","The following are multiple choice questions about high_school_mathematics.
Colton and his dad bought a gallon of paint that cost $13. They also bought 2 brushes that cost $9 each. What was the total cost, not including tax, of the brushes and the paint they bought?
(A) $22, (B) $24, (C) $31, (D) $35
Answer: C
Solve for y. y – 2 + 3y = 10
(A) 2, (B) 3, (C) 4, (D) 5
Answer: B
Solve 3 over 2 * w = 66.
(A) 33, (B) 44, (C) 88, (D) 99
Answer: B
Write 5.875 as a mixed number or fraction in simplest form.
(A) 5 and 8 over 9, (B) 5 and 7 over 8, (C) 7 over 8, (D) 5 and 87 over 105
Answer: B
Solve the equation 124 = m + 34.
(A) 158, (B) 90, (C) 88, (D) 4,216
Answer: B
Zelma buys p pounds of bananas for 40 cents per pound. She pays the clerk with a twenty-dollar bill. The clerk subtracts the total cost of the bananas from the twenty-dollar bill to determine the amount of change to give Zelma. Which expression represents the amount of change Zelma should receive?
(A) p - 20, (B) 20 - 40p, (C) 20 - 0.40p, (D) 0.40p - 20
Answer: C
Please answer the following question with just the correct option (A, B, C, or D) without any explanation or additional text.
Let f(x,y) = x^2 - 2xy + y^3 for all real x and y. Which of the following is true?
(A) 'f has all of its relative extrema on the line x = y.', (B) 'f has all of its relative extrema on the parabola x = y^2.', (C) 'f has a relative minimum at (0, 0).', (D) 'f has an absolute minimum at (2/3, 2/3).'
Answer:","","","","","","","","","","","","","","","","","","","","","",""
"","","","","","","","","","","","","","","","","","","","","","","","","","","","B","","","","","","","","","","","","","","","","","","","","",""
"","","","","","","","","","","","","","","","","","","","","","","","","","","","","false","126","-1","C","false","false","defer","[]","true","2","false","0","{""elementary_mathematics"":[""40/50"",""31/50"",""6/7""],""high_school_mathematics"":[""28/52"",""22/50"",""5/9""],""college_mathematics"":[""22/51"",""26/51"",""2/6""]}","{""high_school_mathematics"":false,""elementary_mathematics"":false,""college_mathematics"":false}","You were wrong by yourself on college_mathematics last time. You should outsource this problem to the AI agent","null","false","false","null","null",""
"image-keyboard-response","41","1183475","0.0-4.0-2.10","nkcuudhu5lbklqn","672ecdbeedfeb33b3b552451","67b62c430b9240ccd8986e70","67b6320b6cff4ed56075bbd0","1","null","","","null","","","Let f(x,y) = x^2 - 2xy + y^3 for all real x and y. Which of the following is true?","[""f has all of its relative extrema on the line x = y."",""f has all of its relative extrema on the parabola x = y^2."",""f has a relative minimum at (0, 0)."",""f has an absolute minimum at (2/3, 2/3).""]","C","B","modiste","","A","108","algLinUCB_0.9","diff-topics","college_mathematics","The following are multiple choice questions about high_school_mathematics.
Colton and his dad bought a gallon of paint that cost $13. They also bought 2 brushes that cost $9 each. What was the total cost, not including tax, of the brushes and the paint they bought?
(A) $22, (B) $24, (C) $31, (D) $35
Answer: C
Solve for y. y – 2 + 3y = 10
(A) 2, (B) 3, (C) 4, (D) 5
Answer: B
Solve 3 over 2 * w = 66.
(A) 33, (B) 44, (C) 88, (D) 99
Answer: B
Write 5.875 as a mixed number or fraction in simplest form.
(A) 5 and 8 over 9, (B) 5 and 7 over 8, (C) 7 over 8, (D) 5 and 87 over 105
Answer: B
Solve the equation 124 = m + 34.
(A) 158, (B) 90, (C) 88, (D) 4,216
Answer: B
Zelma buys p pounds of bananas for 40 cents per pound. She pays the clerk with a twenty-dollar bill. The clerk subtracts the total cost of the bananas from the twenty-dollar bill to determine the amount of change to give Zelma. Which expression represents the amount of change Zelma should receive?
(A) p - 20, (B) 20 - 40p, (C) 20 - 0.40p, (D) 0.40p - 20
Answer: C
Please answer the following question with just the correct option (A, B, C, or D) without any explanation or additional text.
Let f(x,y) = x^2 - 2xy + y^3 for all real x and y. Which of the following is true?
(A) 'f has all of its relative extrema on the line x = y.', (B) 'f has all of its relative extrema on the parabola x = y^2.', (C) 'f has a relative minimum at (0, 0).', (D) 'f has an absolute minimum at (2/3, 2/3).'
Answer:","","","","","","","","","","","","","","","","","","","","","","feedback_imgs/Incorrect.png"
"call-function","42","1183476","0.0-4.0-0.11","nkcuudhu5lbklqn","672ecdbeedfeb33b3b552451","67b62c430b9240ccd8986e70","67b6320b6cff4ed56075bbd0","1","","","","","","defer","Let R be a ring with a multiplicative identity. If U is an additive subgroup of R such that ur in U for all u in U and for all r in R, then U is said to be a right ideal of R. If R has exactly two right ideals, which of the following must be true?
I. R is commutative.
II. R is a division ring (that is, all elements except the additive identity have multiplicative inverses).
III. R is infinite.","[""I only"",""II only"",""III only"",""I and II only""]","B","B","modiste","","B","102","algLinUCB_0.9","diff-topics","college_mathematics","The following are multiple choice questions about high_school_mathematics.
Colton and his dad bought a gallon of paint that cost $13. They also bought 2 brushes that cost $9 each. What was the total cost, not including tax, of the brushes and the paint they bought?
(A) $22, (B) $24, (C) $31, (D) $35
Answer: C
Solve for y. y – 2 + 3y = 10
(A) 2, (B) 3, (C) 4, (D) 5
Answer: B
Solve 3 over 2 * w = 66.
(A) 33, (B) 44, (C) 88, (D) 99
Answer: B
Write 5.875 as a mixed number or fraction in simplest form.
(A) 5 and 8 over 9, (B) 5 and 7 over 8, (C) 7 over 8, (D) 5 and 87 over 105
Answer: B
Solve the equation 124 = m + 34.
(A) 158, (B) 90, (C) 88, (D) 4,216
Answer: B
Zelma buys p pounds of bananas for 40 cents per pound. She pays the clerk with a twenty-dollar bill. The clerk subtracts the total cost of the bananas from the twenty-dollar bill to determine the amount of change to give Zelma. Which expression represents the amount of change Zelma should receive?
(A) p - 20, (B) 20 - 40p, (C) 20 - 0.40p, (D) 0.40p - 20
Answer: C
Please answer the following question with just the correct option (A, B, C, or D) without any explanation or additional text.
Let R be a ring with a multiplicative identity. If U is an additive subgroup of R such that ur in U for all u in U and for all r in R, then U is said to be a right ideal of R. If R has exactly two right ideals, which of the following must be true?
I. R is commutative.
II. R is a division ring (that is, all elements except the additive identity have multiplicative inverses).
III. R is infinite.
(A) 'I only', (B) 'II only', (C) 'III only', (D) 'I and II only'
Answer:","","","","","","","","","","","","","","","","","","","","","",""
"survey-html-form","43","1228824","0.0-4.0-1.11","nkcuudhu5lbklqn","672ecdbeedfeb33b3b552451","67b62c430b9240ccd8986e70","67b6320b6cff4ed56075bbd0","1","45337","","","{""mcAnswer"":""C""}","","","Let R be a ring with a multiplicative identity. If U is an additive subgroup of R such that ur in U for all u in U and for all r in R, then U is said to be a right ideal of R. If R has exactly two right ideals, which of the following must be true?
I. R is commutative.
II. R is a division ring (that is, all elements except the additive identity have multiplicative inverses).
III. R is infinite.","[""I only"",""II only"",""III only"",""I and II only""]","B","B","modiste","","B","102","algLinUCB_0.9","diff-topics","college_mathematics","The following are multiple choice questions about high_school_mathematics.
Colton and his dad bought a gallon of paint that cost $13. They also bought 2 brushes that cost $9 each. What was the total cost, not including tax, of the brushes and the paint they bought?
(A) $22, (B) $24, (C) $31, (D) $35
Answer: C
Solve for y. y – 2 + 3y = 10
(A) 2, (B) 3, (C) 4, (D) 5
Answer: B
Solve 3 over 2 * w = 66.
(A) 33, (B) 44, (C) 88, (D) 99
Answer: B
Write 5.875 as a mixed number or fraction in simplest form.
(A) 5 and 8 over 9, (B) 5 and 7 over 8, (C) 7 over 8, (D) 5 and 87 over 105
Answer: B
Solve the equation 124 = m + 34.
(A) 158, (B) 90, (C) 88, (D) 4,216
Answer: B
Zelma buys p pounds of bananas for 40 cents per pound. She pays the clerk with a twenty-dollar bill. The clerk subtracts the total cost of the bananas from the twenty-dollar bill to determine the amount of change to give Zelma. Which expression represents the amount of change Zelma should receive?
(A) p - 20, (B) 20 - 40p, (C) 20 - 0.40p, (D) 0.40p - 20
Answer: C
Please answer the following question with just the correct option (A, B, C, or D) without any explanation or additional text.
Let R be a ring with a multiplicative identity. If U is an additive subgroup of R such that ur in U for all u in U and for all r in R, then U is said to be a right ideal of R. If R has exactly two right ideals, which of the following must be true?
I. R is commutative.
II. R is a division ring (that is, all elements except the additive identity have multiplicative inverses).
III. R is infinite.
(A) 'I only', (B) 'II only', (C) 'III only', (D) 'I and II only'
Answer:","","","","","","","","","","","","","","","","","","","","","",""
"","","","","","","","","","","","","","","","","","","","","","","","","","","","C","","","","","","","","","","","","","","","","","","","","",""
"","","","","","","","","","","","","","","","","","","","","","","","","","","","","false","126","-1","B","false","true","defer","[]","false","0","false","0","{""elementary_mathematics"":[""40/50"",""31/50"",""6/7""],""high_school_mathematics"":[""28/52"",""22/50"",""5/9""],""college_mathematics"":[""22/51"",""26/51"",""2/7""]}","{""high_school_mathematics"":false,""elementary_mathematics"":false,""college_mathematics"":true}","You should outsource this problem to the AI agent","null","null","false","null","null",""
"image-keyboard-response","44","1230327","0.0-4.0-2.11","nkcuudhu5lbklqn","672ecdbeedfeb33b3b552451","67b62c430b9240ccd8986e70","67b6320b6cff4ed56075bbd0","1","null","","","null","","","Let R be a ring with a multiplicative identity. If U is an additive subgroup of R such that ur in U for all u in U and for all r in R, then U is said to be a right ideal of R. If R has exactly two right ideals, which of the following must be true?
I. R is commutative.
II. R is a division ring (that is, all elements except the additive identity have multiplicative inverses).
III. R is infinite.","[""I only"",""II only"",""III only"",""I and II only""]","B","B","modiste","","B","102","algLinUCB_0.9","diff-topics","college_mathematics","The following are multiple choice questions about high_school_mathematics.
Colton and his dad bought a gallon of paint that cost $13. They also bought 2 brushes that cost $9 each. What was the total cost, not including tax, of the brushes and the paint they bought?
(A) $22, (B) $24, (C) $31, (D) $35
Answer: C
Solve for y. y – 2 + 3y = 10
(A) 2, (B) 3, (C) 4, (D) 5
Answer: B
Solve 3 over 2 * w = 66.
(A) 33, (B) 44, (C) 88, (D) 99
Answer: B
Write 5.875 as a mixed number or fraction in simplest form.
(A) 5 and 8 over 9, (B) 5 and 7 over 8, (C) 7 over 8, (D) 5 and 87 over 105
Answer: B
Solve the equation 124 = m + 34.
(A) 158, (B) 90, (C) 88, (D) 4,216
Answer: B
Zelma buys p pounds of bananas for 40 cents per pound. She pays the clerk with a twenty-dollar bill. The clerk subtracts the total cost of the bananas from the twenty-dollar bill to determine the amount of change to give Zelma. Which expression represents the amount of change Zelma should receive?
(A) p - 20, (B) 20 - 40p, (C) 20 - 0.40p, (D) 0.40p - 20
Answer: C
Please answer the following question with just the correct option (A, B, C, or D) without any explanation or additional text.
Let R be a ring with a multiplicative identity. If U is an additive subgroup of R such that ur in U for all u in U and for all r in R, then U is said to be a right ideal of R. If R has exactly two right ideals, which of the following must be true?
I. R is commutative.
II. R is a division ring (that is, all elements except the additive identity have multiplicative inverses).
III. R is infinite.
(A) 'I only', (B) 'II only', (C) 'III only', (D) 'I and II only'
Answer:","","","","","","","","","","","","","","","","","","","","","","feedback_imgs/Incorrect.png"
"call-function","45","1230328","0.0-4.0-0.12","nkcuudhu5lbklqn","672ecdbeedfeb33b3b552451","67b62c430b9240ccd8986e70","67b6320b6cff4ed56075bbd0","1","","","","","","defer","Identify a solution for the equation x + 2.7 = 8.4 from the given numbers.","[""11.1"",""5.7"",""3.7"",""22.68""]","B","B","modiste","","B","84","algLinUCB_0.9","diff-topics","elementary_mathematics","The following are multiple choice questions about high_school_mathematics.
Colton and his dad bought a gallon of paint that cost $13. They also bought 2 brushes that cost $9 each. What was the total cost, not including tax, of the brushes and the paint they bought?
(A) $22, (B) $24, (C) $31, (D) $35
Answer: C
Solve for y. y – 2 + 3y = 10
(A) 2, (B) 3, (C) 4, (D) 5
Answer: B
Solve 3 over 2 * w = 66.
(A) 33, (B) 44, (C) 88, (D) 99
Answer: B
Write 5.875 as a mixed number or fraction in simplest form.
(A) 5 and 8 over 9, (B) 5 and 7 over 8, (C) 7 over 8, (D) 5 and 87 over 105
Answer: B
Solve the equation 124 = m + 34.
(A) 158, (B) 90, (C) 88, (D) 4,216
Answer: B
Zelma buys p pounds of bananas for 40 cents per pound. She pays the clerk with a twenty-dollar bill. The clerk subtracts the total cost of the bananas from the twenty-dollar bill to determine the amount of change to give Zelma. Which expression represents the amount of change Zelma should receive?
(A) p - 20, (B) 20 - 40p, (C) 20 - 0.40p, (D) 0.40p - 20
Answer: C
Please answer the following question with just the correct option (A, B, C, or D) without any explanation or additional text.
Identify a solution for the equation x + 2.7 = 8.4 from the given numbers.
(A) '11.1', (B) '5.7', (C) '3.7', (D) '22.68'
Answer:","","","","","","","","","","","","","","","","","","","","","",""
"survey-html-form","46","1448258","0.0-4.0-1.12","nkcuudhu5lbklqn","672ecdbeedfeb33b3b552451","67b62c430b9240ccd8986e70","67b6320b6cff4ed56075bbd0","1","217919.60000000894","","","{""mcAnswer"":""B""}","","","Identify a solution for the equation x + 2.7 = 8.4 from the given numbers.","[""11.1"",""5.7"",""3.7"",""22.68""]","B","B","modiste","","B","84","algLinUCB_0.9","diff-topics","elementary_mathematics","The following are multiple choice questions about high_school_mathematics.
Colton and his dad bought a gallon of paint that cost $13. They also bought 2 brushes that cost $9 each. What was the total cost, not including tax, of the brushes and the paint they bought?
(A) $22, (B) $24, (C) $31, (D) $35
Answer: C
Solve for y. y – 2 + 3y = 10
(A) 2, (B) 3, (C) 4, (D) 5
Answer: B
Solve 3 over 2 * w = 66.
(A) 33, (B) 44, (C) 88, (D) 99
Answer: B
Write 5.875 as a mixed number or fraction in simplest form.
(A) 5 and 8 over 9, (B) 5 and 7 over 8, (C) 7 over 8, (D) 5 and 87 over 105
Answer: B
Solve the equation 124 = m + 34.
(A) 158, (B) 90, (C) 88, (D) 4,216
Answer: B
Zelma buys p pounds of bananas for 40 cents per pound. She pays the clerk with a twenty-dollar bill. The clerk subtracts the total cost of the bananas from the twenty-dollar bill to determine the amount of change to give Zelma. Which expression represents the amount of change Zelma should receive?
(A) p - 20, (B) 20 - 40p, (C) 20 - 0.40p, (D) 0.40p - 20
Answer: C
Please answer the following question with just the correct option (A, B, C, or D) without any explanation or additional text.
Identify a solution for the equation x + 2.7 = 8.4 from the given numbers.
(A) '11.1', (B) '5.7', (C) '3.7', (D) '22.68'
Answer:","","","","","","","","","","","","","","","","","","","","","",""
"","","","","","","","","","","","","","","","","","","","","","","","","","","","B","","","","","","","","","","","","","","","","","","","","",""
"","","","","","","","","","","","","","","","","","","","","","","","","","","","","false","136","-1","B","true","true","defer","[]","false","0","false","0","{""elementary_mathematics"":[""40/50"",""31/50"",""7/8""],""high_school_mathematics"":[""28/52"",""22/50"",""5/9""],""college_mathematics"":[""22/51"",""26/51"",""2/7""]}","{""high_school_mathematics"":false,""elementary_mathematics"":false,""college_mathematics"":true}","You should attempt this problem by yourself","null","null","null","null","true",""
"image-keyboard-response","47","1449761","0.0-4.0-2.12","nkcuudhu5lbklqn","672ecdbeedfeb33b3b552451","67b62c430b9240ccd8986e70","67b6320b6cff4ed56075bbd0","1","null","","","null","","","Identify a solution for the equation x + 2.7 = 8.4 from the given numbers.","[""11.1"",""5.7"",""3.7"",""22.68""]","B","B","modiste","","B","84","algLinUCB_0.9","diff-topics","elementary_mathematics","The following are multiple choice questions about high_school_mathematics.
Colton and his dad bought a gallon of paint that cost $13. They also bought 2 brushes that cost $9 each. What was the total cost, not including tax, of the brushes and the paint they bought?
(A) $22, (B) $24, (C) $31, (D) $35
Answer: C
Solve for y. y – 2 + 3y = 10
(A) 2, (B) 3, (C) 4, (D) 5
Answer: B
Solve 3 over 2 * w = 66.
(A) 33, (B) 44, (C) 88, (D) 99
Answer: B
Write 5.875 as a mixed number or fraction in simplest form.
(A) 5 and 8 over 9, (B) 5 and 7 over 8, (C) 7 over 8, (D) 5 and 87 over 105
Answer: B
Solve the equation 124 = m + 34.
(A) 158, (B) 90, (C) 88, (D) 4,216
Answer: B
Zelma buys p pounds of bananas for 40 cents per pound. She pays the clerk with a twenty-dollar bill. The clerk subtracts the total cost of the bananas from the twenty-dollar bill to determine the amount of change to give Zelma. Which expression represents the amount of change Zelma should receive?
(A) p - 20, (B) 20 - 40p, (C) 20 - 0.40p, (D) 0.40p - 20
Answer: C
Please answer the following question with just the correct option (A, B, C, or D) without any explanation or additional text.
Identify a solution for the equation x + 2.7 = 8.4 from the given numbers.
(A) '11.1', (B) '5.7', (C) '3.7', (D) '22.68'
Answer:","","","","","","","","","","","","","","","","","","","","","","feedback_imgs/Correct.png"
"call-function","48","1449762","0.0-4.0-0.13","nkcuudhu5lbklqn","672ecdbeedfeb33b3b552451","67b62c430b9240ccd8986e70","67b6320b6cff4ed56075bbd0","1","","","","","","defer","A six-sided die (whose faces are numbered 1 through 6, as usual) is known to be counterfeit: The probability of rolling any even number is twice the probability of rolling any odd number. What is the probability that if this die is thrown twice, the first roll will be a 5 and the second roll will be a 6?","[""2/81"",""1/18"",""2/27"",""1/9""]","C","B","modiste","","A","103","algLinUCB_0.9","diff-topics","college_mathematics","The following are multiple choice questions about high_school_mathematics.
Colton and his dad bought a gallon of paint that cost $13. They also bought 2 brushes that cost $9 each. What was the total cost, not including tax, of the brushes and the paint they bought?
(A) $22, (B) $24, (C) $31, (D) $35
Answer: C
Solve for y. y – 2 + 3y = 10
(A) 2, (B) 3, (C) 4, (D) 5
Answer: B
Solve 3 over 2 * w = 66.
(A) 33, (B) 44, (C) 88, (D) 99
Answer: B
Write 5.875 as a mixed number or fraction in simplest form.
(A) 5 and 8 over 9, (B) 5 and 7 over 8, (C) 7 over 8, (D) 5 and 87 over 105
Answer: B
Solve the equation 124 = m + 34.
(A) 158, (B) 90, (C) 88, (D) 4,216
Answer: B
Zelma buys p pounds of bananas for 40 cents per pound. She pays the clerk with a twenty-dollar bill. The clerk subtracts the total cost of the bananas from the twenty-dollar bill to determine the amount of change to give Zelma. Which expression represents the amount of change Zelma should receive?
(A) p - 20, (B) 20 - 40p, (C) 20 - 0.40p, (D) 0.40p - 20
Answer: C
Please answer the following question with just the correct option (A, B, C, or D) without any explanation or additional text.
A six-sided die (whose faces are numbered 1 through 6, as usual) is known to be counterfeit: The probability of rolling any even number is twice the probability of rolling any odd number. What is the probability that if this die is thrown twice, the first roll will be a 5 and the second roll will be a 6?
(A) '2/81', (B) '1/18', (C) '2/27', (D) '1/9'
Answer:","","","","","","","","","","","","true","2","","","","","","","","",""
"survey-html-form","49","1530905","0.0-4.0-1.13","nkcuudhu5lbklqn","672ecdbeedfeb33b3b552451","67b62c430b9240ccd8986e70","67b6320b6cff4ed56075bbd0","1","81132.69999998808","","","{""mcAnswer"":""C""}","","","A six-sided die (whose faces are numbered 1 through 6, as usual) is known to be counterfeit: The probability of rolling any even number is twice the probability of rolling any odd number. What is the probability that if this die is thrown twice, the first roll will be a 5 and the second roll will be a 6?","[""2/81"",""1/18"",""2/27"",""1/9""]","C","B","modiste","","A","103","algLinUCB_0.9","diff-topics","college_mathematics","The following are multiple choice questions about high_school_mathematics.
Colton and his dad bought a gallon of paint that cost $13. They also bought 2 brushes that cost $9 each. What was the total cost, not including tax, of the brushes and the paint they bought?
(A) $22, (B) $24, (C) $31, (D) $35
Answer: C
Solve for y. y – 2 + 3y = 10
(A) 2, (B) 3, (C) 4, (D) 5
Answer: B
Solve 3 over 2 * w = 66.
(A) 33, (B) 44, (C) 88, (D) 99
Answer: B
Write 5.875 as a mixed number or fraction in simplest form.
(A) 5 and 8 over 9, (B) 5 and 7 over 8, (C) 7 over 8, (D) 5 and 87 over 105
Answer: B
Solve the equation 124 = m + 34.
(A) 158, (B) 90, (C) 88, (D) 4,216
Answer: B
Zelma buys p pounds of bananas for 40 cents per pound. She pays the clerk with a twenty-dollar bill. The clerk subtracts the total cost of the bananas from the twenty-dollar bill to determine the amount of change to give Zelma. Which expression represents the amount of change Zelma should receive?
(A) p - 20, (B) 20 - 40p, (C) 20 - 0.40p, (D) 0.40p - 20
Answer: C
Please answer the following question with just the correct option (A, B, C, or D) without any explanation or additional text.
A six-sided die (whose faces are numbered 1 through 6, as usual) is known to be counterfeit: The probability of rolling any even number is twice the probability of rolling any odd number. What is the probability that if this die is thrown twice, the first roll will be a 5 and the second roll will be a 6?
(A) '2/81', (B) '1/18', (C) '2/27', (D) '1/9'
Answer:","","","","","","","","","","","","","","","","","","","","","",""
"","","","","","","","","","","","","","","","","","","","","","","","","","","","C","","","","","","","","","","","","","","","","","","","","",""
"","","","","","","","","","","","","","","","","","","","","","","","","","","","","false","133","-1","C","false","false","defer","[]","false","0","true","2","{""elementary_mathematics"":[""40/50"",""31/50"",""7/8""],""high_school_mathematics"":[""28/52"",""22/50"",""5/9""],""college_mathematics"":[""22/51"",""26/52"",""2/7""]}","{""high_school_mathematics"":false,""elementary_mathematics"":false,""college_mathematics"":false}","You were wrong by yourself on college_mathematics last time. You should outsource this problem to the AI agent","false","null","true","null","null",""
"image-keyboard-response","50","1532408","0.0-4.0-2.13","nkcuudhu5lbklqn","672ecdbeedfeb33b3b552451","67b62c430b9240ccd8986e70","67b6320b6cff4ed56075bbd0","1","null","","","null","","","A six-sided die (whose faces are numbered 1 through 6, as usual) is known to be counterfeit: The probability of rolling any even number is twice the probability of rolling any odd number. What is the probability that if this die is thrown twice, the first roll will be a 5 and the second roll will be a 6?","[""2/81"",""1/18"",""2/27"",""1/9""]","C","B","modiste","","A","103","algLinUCB_0.9","diff-topics","college_mathematics","The following are multiple choice questions about high_school_mathematics.
Colton and his dad bought a gallon of paint that cost $13. They also bought 2 brushes that cost $9 each. What was the total cost, not including tax, of the brushes and the paint they bought?
(A) $22, (B) $24, (C) $31, (D) $35
Answer: C
Solve for y. y – 2 + 3y = 10
(A) 2, (B) 3, (C) 4, (D) 5
Answer: B
Solve 3 over 2 * w = 66.
(A) 33, (B) 44, (C) 88, (D) 99
Answer: B
Write 5.875 as a mixed number or fraction in simplest form.
(A) 5 and 8 over 9, (B) 5 and 7 over 8, (C) 7 over 8, (D) 5 and 87 over 105
Answer: B
Solve the equation 124 = m + 34.
(A) 158, (B) 90, (C) 88, (D) 4,216
Answer: B
Zelma buys p pounds of bananas for 40 cents per pound. She pays the clerk with a twenty-dollar bill. The clerk subtracts the total cost of the bananas from the twenty-dollar bill to determine the amount of change to give Zelma. Which expression represents the amount of change Zelma should receive?
(A) p - 20, (B) 20 - 40p, (C) 20 - 0.40p, (D) 0.40p - 20
Answer: C
Please answer the following question with just the correct option (A, B, C, or D) without any explanation or additional text.
A six-sided die (whose faces are numbered 1 through 6, as usual) is known to be counterfeit: The probability of rolling any even number is twice the probability of rolling any odd number. What is the probability that if this die is thrown twice, the first roll will be a 5 and the second roll will be a 6?
(A) '2/81', (B) '1/18', (C) '2/27', (D) '1/9'
Answer:","","","","","","","","","","","","","","","","","","","","","","feedback_imgs/Incorrect.png"
"call-function","51","1532408","0.0-4.0-0.14","nkcuudhu5lbklqn","672ecdbeedfeb33b3b552451","67b62c430b9240ccd8986e70","67b6320b6cff4ed56075bbd0","1","","","","","","defer","In xyz-space, what are the coordinates of the point on the plane 2x + y + 3z = 3 that is closest to the origin?","[""(0, 0, 1)"",""(3/7, 3/14, 9/14)"",""(7/15, 8/15, 1/15)"",""(5/6, 1/3, 1/3)""]","B","D","modiste","","B","111","algLinUCB_0.9","diff-topics","college_mathematics","The following are multiple choice questions about high_school_mathematics.
Colton and his dad bought a gallon of paint that cost $13. They also bought 2 brushes that cost $9 each. What was the total cost, not including tax, of the brushes and the paint they bought?
(A) $22, (B) $24, (C) $31, (D) $35
Answer: C
Solve for y. y – 2 + 3y = 10
(A) 2, (B) 3, (C) 4, (D) 5
Answer: B
Solve 3 over 2 * w = 66.
(A) 33, (B) 44, (C) 88, (D) 99
Answer: B
Write 5.875 as a mixed number or fraction in simplest form.
(A) 5 and 8 over 9, (B) 5 and 7 over 8, (C) 7 over 8, (D) 5 and 87 over 105
Answer: B
Solve the equation 124 = m + 34.
(A) 158, (B) 90, (C) 88, (D) 4,216
Answer: B
Zelma buys p pounds of bananas for 40 cents per pound. She pays the clerk with a twenty-dollar bill. The clerk subtracts the total cost of the bananas from the twenty-dollar bill to determine the amount of change to give Zelma. Which expression represents the amount of change Zelma should receive?
(A) p - 20, (B) 20 - 40p, (C) 20 - 0.40p, (D) 0.40p - 20
Answer: C
Please answer the following question with just the correct option (A, B, C, or D) without any explanation or additional text.
In xyz-space, what are the coordinates of the point on the plane 2x + y + 3z = 3 that is closest to the origin?
(A) '(0, 0, 1)', (B) '(3/7, 3/14, 9/14)', (C) '(7/15, 8/15, 1/15)', (D) '(5/6, 1/3, 1/3)'
Answer:","","","","","","","","","","","","","","","","","","","","","",""
"survey-html-form","52","1584631","0.0-4.0-1.14","nkcuudhu5lbklqn","672ecdbeedfeb33b3b552451","67b62c430b9240ccd8986e70","67b6320b6cff4ed56075bbd0","1","52219","","","{""mcAnswer"":""D""}","","","In xyz-space, what are the coordinates of the point on the plane 2x + y + 3z = 3 that is closest to the origin?","[""(0, 0, 1)"",""(3/7, 3/14, 9/14)"",""(7/15, 8/15, 1/15)"",""(5/6, 1/3, 1/3)""]","B","D","modiste","","B","111","algLinUCB_0.9","diff-topics","college_mathematics","The following are multiple choice questions about high_school_mathematics.
Colton and his dad bought a gallon of paint that cost $13. They also bought 2 brushes that cost $9 each. What was the total cost, not including tax, of the brushes and the paint they bought?
(A) $22, (B) $24, (C) $31, (D) $35
Answer: C
Solve for y. y – 2 + 3y = 10
(A) 2, (B) 3, (C) 4, (D) 5
Answer: B
Solve 3 over 2 * w = 66.
(A) 33, (B) 44, (C) 88, (D) 99
Answer: B
Write 5.875 as a mixed number or fraction in simplest form.
(A) 5 and 8 over 9, (B) 5 and 7 over 8, (C) 7 over 8, (D) 5 and 87 over 105
Answer: B
Solve the equation 124 = m + 34.
(A) 158, (B) 90, (C) 88, (D) 4,216
Answer: B
Zelma buys p pounds of bananas for 40 cents per pound. She pays the clerk with a twenty-dollar bill. The clerk subtracts the total cost of the bananas from the twenty-dollar bill to determine the amount of change to give Zelma. Which expression represents the amount of change Zelma should receive?
(A) p - 20, (B) 20 - 40p, (C) 20 - 0.40p, (D) 0.40p - 20
Answer: C
Please answer the following question with just the correct option (A, B, C, or D) without any explanation or additional text.
In xyz-space, what are the coordinates of the point on the plane 2x + y + 3z = 3 that is closest to the origin?
(A) '(0, 0, 1)', (B) '(3/7, 3/14, 9/14)', (C) '(7/15, 8/15, 1/15)', (D) '(5/6, 1/3, 1/3)'
Answer:","","","","","","","","","","","","","","","","","","","","","",""
