"trial_type","trial_index","time_elapsed","internal_node_id","subject","prolific_id","study_id","session_id","condition","rt","url","view_history","response","question_order","value","question","options","llm_answer","population_answer","task","subj_id","label","example_id","variant","main_variant","topic","prompt","0","btn_clicked","score","timeToClick","modelPred","humanCorrect","modelCorrect","interfaceType","modelPredDist","human_support_used","human_support_clicks","llm_support_used","llm_support_clicks","recommendation_lists","incorrect_answers_by_category","recommendation","LLM_outsourcing_overridden","human_outsourcing_overridden","ai_orch_agreement","human_orch_agreement","self_orch_agreement","stimulus"
"pavlovia","0","1194","0.0-0.0","y746dya1xmdh555","59db7128e776fd00015ec895","67b62c430b9240ccd8986e70","67b631ad75880fd42ac94178","4","","","","","","","","","","","","","","","","","","","","","","","","","","","","","","","","","","","","","","","",""
"external-html","1","86753","0.0-1.0","y746dya1xmdh555","59db7128e776fd00015ec895","67b62c430b9240ccd8986e70","67b631ad75880fd42ac94178","4","85406.80000001192","consent.html","","","","","","","","","","","","","","","","","","","","","","","","","","","","","","","","","","","","","",""
"instructions","2","161821","0.0-2.0-0.0","y746dya1xmdh555","59db7128e776fd00015ec895","67b62c430b9240ccd8986e70","67b631ad75880fd42ac94178","4","75067.90000000596","","[{""page_index"":0,""viewing_time"":21751.90000000596},{""page_index"":1,""viewing_time"":8355.59999999404},{""page_index"":2,""viewing_time"":5741.199999988079},{""page_index"":3,""viewing_time"":9494.5},{""page_index"":4,""viewing_time"":14367.40000000596},{""page_index"":5,""viewing_time"":10359.5},{""page_index"":6,""viewing_time"":1746.199999988079},{""page_index"":7,""viewing_time"":3251.300000011921}]","","","","","","","","","","","","","","","","","","","","","","","","","","","","","","","","","","","","",""
"survey-multi-choice","3","169097","0.0-2.0-1.0","y746dya1xmdh555","59db7128e776fd00015ec895","67b62c430b9240ccd8986e70","67b631ad75880fd42ac94178","4","7274.300000011921","","","{""Q0"":""The answer to a mutliple choice question."",""Q1"":""Clicking on a radio button.""}","[0,1]","","","","","","","","","","","","","","","","","","","","","","","","","","","","","","","","","","",""
"instructions","4","188079","0.0-3.0","y746dya1xmdh555","59db7128e776fd00015ec895","67b62c430b9240ccd8986e70","67b631ad75880fd42ac94178","4","18982.100000023842","","[{""page_index"":0,""viewing_time"":18981.90000000596}]","","","","","","","","","","","","","","","","","","","","","","","","","","","","","","","","","","","","",""
"call-function","5","188080","0.0-4.0-0.0","y746dya1xmdh555","59db7128e776fd00015ec895","67b62c430b9240ccd8986e70","67b631ad75880fd42ac94178","4","","","","","","defer","8 + 8 ÷ 2 + 2 =","[""4"",""8"",""10"",""14""]","C","D","modiste","","D","265","algLinUCB_0.9","diff-topics","elementary_mathematics","The following are multiple choice questions about high_school_mathematics.
Colton and his dad bought a gallon of paint that cost $13. They also bought 2 brushes that cost $9 each. What was the total cost, not including tax, of the brushes and the paint they bought?
(A) $22, (B) $24, (C) $31, (D) $35
Answer: C
Solve for y. y – 2 + 3y = 10
(A) 2, (B) 3, (C) 4, (D) 5
Answer: B
Solve 3 over 2 * w = 66.
(A) 33, (B) 44, (C) 88, (D) 99
Answer: B
Write 5.875 as a mixed number or fraction in simplest form.
(A) 5 and 8 over 9, (B) 5 and 7 over 8, (C) 7 over 8, (D) 5 and 87 over 105
Answer: B
Solve the equation 124 = m + 34.
(A) 158, (B) 90, (C) 88, (D) 4,216
Answer: B
Zelma buys p pounds of bananas for 40 cents per pound. She pays the clerk with a twenty-dollar bill. The clerk subtracts the total cost of the bananas from the twenty-dollar bill to determine the amount of change to give Zelma. Which expression represents the amount of change Zelma should receive?
(A) p - 20, (B) 20 - 40p, (C) 20 - 0.40p, (D) 0.40p - 20
Answer: C
Please answer the following question with just the correct option (A, B, C, or D) without any explanation or additional text.
8 + 8 ÷ 2 + 2 =
(A) '4', (B) '8', (C) '10', (D) '14'
Answer:","","","","","","","","","","","","","","","","","","","","","",""
"survey-html-form","6","200923","0.0-4.0-1.0","y746dya1xmdh555","59db7128e776fd00015ec895","67b62c430b9240ccd8986e70","67b631ad75880fd42ac94178","4","12842.100000023842","","","{""mcAnswer"":""C""}","","","8 + 8 ÷ 2 + 2 =","[""4"",""8"",""10"",""14""]","C","D","modiste","","D","265","algLinUCB_0.9","diff-topics","elementary_mathematics","The following are multiple choice questions about high_school_mathematics.
Colton and his dad bought a gallon of paint that cost $13. They also bought 2 brushes that cost $9 each. What was the total cost, not including tax, of the brushes and the paint they bought?
(A) $22, (B) $24, (C) $31, (D) $35
Answer: C
Solve for y. y – 2 + 3y = 10
(A) 2, (B) 3, (C) 4, (D) 5
Answer: B
Solve 3 over 2 * w = 66.
(A) 33, (B) 44, (C) 88, (D) 99
Answer: B
Write 5.875 as a mixed number or fraction in simplest form.
(A) 5 and 8 over 9, (B) 5 and 7 over 8, (C) 7 over 8, (D) 5 and 87 over 105
Answer: B
Solve the equation 124 = m + 34.
(A) 158, (B) 90, (C) 88, (D) 4,216
Answer: B
Zelma buys p pounds of bananas for 40 cents per pound. She pays the clerk with a twenty-dollar bill. The clerk subtracts the total cost of the bananas from the twenty-dollar bill to determine the amount of change to give Zelma. Which expression represents the amount of change Zelma should receive?
(A) p - 20, (B) 20 - 40p, (C) 20 - 0.40p, (D) 0.40p - 20
Answer: C
Please answer the following question with just the correct option (A, B, C, or D) without any explanation or additional text.
8 + 8 ÷ 2 + 2 =
(A) '4', (B) '8', (C) '10', (D) '14'
Answer:","","","","","","","","","","","","","","","","","","","","","",""
"","","","","","","","","","","","","","","","","","","","","","","","","","","","C","","","","","","","","","","","","","","","","","","","","",""
"","","","","","","","","","","","","","","","","","","","","","","","","","","","","false","100","-1","C","false","false","defer","[]","false","0","false","0","{""elementary_mathematics"":[""40/50"",""31/50"",""4/6""],""high_school_mathematics"":[""27/50"",""22/50"",""3 / 5""],""college_mathematics"":[""22/50"",""26/50"",""2 / 5""]}","{""elementary_mathematics"":true}","You should attempt this problem by yourself","null","null","null","null","true",""
"image-keyboard-response","7","202429","0.0-4.0-2.0","y746dya1xmdh555","59db7128e776fd00015ec895","67b62c430b9240ccd8986e70","67b631ad75880fd42ac94178","4","null","","","null","","","8 + 8 ÷ 2 + 2 =","[""4"",""8"",""10"",""14""]","C","D","modiste","","D","265","algLinUCB_0.9","diff-topics","elementary_mathematics","The following are multiple choice questions about high_school_mathematics.
Colton and his dad bought a gallon of paint that cost $13. They also bought 2 brushes that cost $9 each. What was the total cost, not including tax, of the brushes and the paint they bought?
(A) $22, (B) $24, (C) $31, (D) $35
Answer: C
Solve for y. y – 2 + 3y = 10
(A) 2, (B) 3, (C) 4, (D) 5
Answer: B
Solve 3 over 2 * w = 66.
(A) 33, (B) 44, (C) 88, (D) 99
Answer: B
Write 5.875 as a mixed number or fraction in simplest form.
(A) 5 and 8 over 9, (B) 5 and 7 over 8, (C) 7 over 8, (D) 5 and 87 over 105
Answer: B
Solve the equation 124 = m + 34.
(A) 158, (B) 90, (C) 88, (D) 4,216
Answer: B
Zelma buys p pounds of bananas for 40 cents per pound. She pays the clerk with a twenty-dollar bill. The clerk subtracts the total cost of the bananas from the twenty-dollar bill to determine the amount of change to give Zelma. Which expression represents the amount of change Zelma should receive?
(A) p - 20, (B) 20 - 40p, (C) 20 - 0.40p, (D) 0.40p - 20
Answer: C
Please answer the following question with just the correct option (A, B, C, or D) without any explanation or additional text.
8 + 8 ÷ 2 + 2 =
(A) '4', (B) '8', (C) '10', (D) '14'
Answer:","","","","","","","","","","","","","","","","","","","","","","feedback_imgs/Incorrect.png"
"call-function","8","202430","0.0-4.0-0.1","y746dya1xmdh555","59db7128e776fd00015ec895","67b62c430b9240ccd8986e70","67b631ad75880fd42ac94178","4","","","","","","defer","What is the supplement of a 40° angle?","[""50°"",""130°"",""140°"",""220°""]","C","C","modiste","","C","267","algLinUCB_0.9","diff-topics","elementary_mathematics","The following are multiple choice questions about high_school_mathematics.
Colton and his dad bought a gallon of paint that cost $13. They also bought 2 brushes that cost $9 each. What was the total cost, not including tax, of the brushes and the paint they bought?
(A) $22, (B) $24, (C) $31, (D) $35
Answer: C
Solve for y. y – 2 + 3y = 10
(A) 2, (B) 3, (C) 4, (D) 5
Answer: B
Solve 3 over 2 * w = 66.
(A) 33, (B) 44, (C) 88, (D) 99
Answer: B
Write 5.875 as a mixed number or fraction in simplest form.
(A) 5 and 8 over 9, (B) 5 and 7 over 8, (C) 7 over 8, (D) 5 and 87 over 105
Answer: B
Solve the equation 124 = m + 34.
(A) 158, (B) 90, (C) 88, (D) 4,216
Answer: B
Zelma buys p pounds of bananas for 40 cents per pound. She pays the clerk with a twenty-dollar bill. The clerk subtracts the total cost of the bananas from the twenty-dollar bill to determine the amount of change to give Zelma. Which expression represents the amount of change Zelma should receive?
(A) p - 20, (B) 20 - 40p, (C) 20 - 0.40p, (D) 0.40p - 20
Answer: C
Please answer the following question with just the correct option (A, B, C, or D) without any explanation or additional text.
What is the supplement of a 40° angle?
(A) '50°', (B) '130°', (C) '140°', (D) '220°'
Answer:","","","","","","","","","","","","true","2","","","","","","","","",""
"survey-html-form","9","218587","0.0-4.0-1.1","y746dya1xmdh555","59db7128e776fd00015ec895","67b62c430b9240ccd8986e70","67b631ad75880fd42ac94178","4","16156.700000017881","","","{""mcAnswer"":""C""}","","","What is the supplement of a 40° angle?","[""50°"",""130°"",""140°"",""220°""]","C","C","modiste","","C","267","algLinUCB_0.9","diff-topics","elementary_mathematics","The following are multiple choice questions about high_school_mathematics.
Colton and his dad bought a gallon of paint that cost $13. They also bought 2 brushes that cost $9 each. What was the total cost, not including tax, of the brushes and the paint they bought?
(A) $22, (B) $24, (C) $31, (D) $35
Answer: C
Solve for y. y – 2 + 3y = 10
(A) 2, (B) 3, (C) 4, (D) 5
Answer: B
Solve 3 over 2 * w = 66.
(A) 33, (B) 44, (C) 88, (D) 99
Answer: B
Write 5.875 as a mixed number or fraction in simplest form.
(A) 5 and 8 over 9, (B) 5 and 7 over 8, (C) 7 over 8, (D) 5 and 87 over 105
Answer: B
Solve the equation 124 = m + 34.
(A) 158, (B) 90, (C) 88, (D) 4,216
Answer: B
Zelma buys p pounds of bananas for 40 cents per pound. She pays the clerk with a twenty-dollar bill. The clerk subtracts the total cost of the bananas from the twenty-dollar bill to determine the amount of change to give Zelma. Which expression represents the amount of change Zelma should receive?
(A) p - 20, (B) 20 - 40p, (C) 20 - 0.40p, (D) 0.40p - 20
Answer: C
Please answer the following question with just the correct option (A, B, C, or D) without any explanation or additional text.
What is the supplement of a 40° angle?
(A) '50°', (B) '130°', (C) '140°', (D) '220°'
Answer:","","","","","","","","","","","","","","","","","","","","","",""
"","","","","","","","","","","","","","","","","","","","","","","","","","","","C","","","","","","","","","","","","","","","","","","","","",""
"","","","","","","","","","","","","","","","","","","","","","","","","","","","","false","107","-1","C","true","true","defer","[]","false","0","true","2","{""elementary_mathematics"":[""40/50"",""32/51"",""4/6""],""high_school_mathematics"":[""27/50"",""22/50"",""3 / 5""],""college_mathematics"":[""22/50"",""26/50"",""2 / 5""]}","{""elementary_mathematics"":false}","You were wrong by yourself on elementary_mathematics last time. You should outsource this problem to a human agent","false","null","null","false","null",""
"image-keyboard-response","10","220091","0.0-4.0-2.1","y746dya1xmdh555","59db7128e776fd00015ec895","67b62c430b9240ccd8986e70","67b631ad75880fd42ac94178","4","null","","","null","","","What is the supplement of a 40° angle?","[""50°"",""130°"",""140°"",""220°""]","C","C","modiste","","C","267","algLinUCB_0.9","diff-topics","elementary_mathematics","The following are multiple choice questions about high_school_mathematics.
Colton and his dad bought a gallon of paint that cost $13. They also bought 2 brushes that cost $9 each. What was the total cost, not including tax, of the brushes and the paint they bought?
(A) $22, (B) $24, (C) $31, (D) $35
Answer: C
Solve for y. y – 2 + 3y = 10
(A) 2, (B) 3, (C) 4, (D) 5
Answer: B
Solve 3 over 2 * w = 66.
(A) 33, (B) 44, (C) 88, (D) 99
Answer: B
Write 5.875 as a mixed number or fraction in simplest form.
(A) 5 and 8 over 9, (B) 5 and 7 over 8, (C) 7 over 8, (D) 5 and 87 over 105
Answer: B
Solve the equation 124 = m + 34.
(A) 158, (B) 90, (C) 88, (D) 4,216
Answer: B
Zelma buys p pounds of bananas for 40 cents per pound. She pays the clerk with a twenty-dollar bill. The clerk subtracts the total cost of the bananas from the twenty-dollar bill to determine the amount of change to give Zelma. Which expression represents the amount of change Zelma should receive?
(A) p - 20, (B) 20 - 40p, (C) 20 - 0.40p, (D) 0.40p - 20
Answer: C
Please answer the following question with just the correct option (A, B, C, or D) without any explanation or additional text.
What is the supplement of a 40° angle?
(A) '50°', (B) '130°', (C) '140°', (D) '220°'
Answer:","","","","","","","","","","","","","","","","","","","","","","feedback_imgs/Correct.png"
"call-function","11","220091","0.0-4.0-0.2","y746dya1xmdh555","59db7128e776fd00015ec895","67b62c430b9240ccd8986e70","67b631ad75880fd42ac94178","4","","","","","","defer","Kerri ran the same distance in four different races. Her times were 18.04 seconds, 21.39 seconds, 12.99 seconds, and 14.14 seconds. If the individual times are rounded to the nearest one-tenth of a second, what is the estimate of Kerri's total time for all four races?","[""66.6 seconds"",""66.5 seconds"",""66 seconds"",""65.5 seconds""]","B","D","modiste","","B","268","algLinUCB_0.9","diff-topics","elementary_mathematics","The following are multiple choice questions about high_school_mathematics.
Colton and his dad bought a gallon of paint that cost $13. They also bought 2 brushes that cost $9 each. What was the total cost, not including tax, of the brushes and the paint they bought?
(A) $22, (B) $24, (C) $31, (D) $35
Answer: C
Solve for y. y – 2 + 3y = 10
(A) 2, (B) 3, (C) 4, (D) 5
Answer: B
Solve 3 over 2 * w = 66.
(A) 33, (B) 44, (C) 88, (D) 99
Answer: B
Write 5.875 as a mixed number or fraction in simplest form.
(A) 5 and 8 over 9, (B) 5 and 7 over 8, (C) 7 over 8, (D) 5 and 87 over 105
Answer: B
Solve the equation 124 = m + 34.
(A) 158, (B) 90, (C) 88, (D) 4,216
Answer: B
Zelma buys p pounds of bananas for 40 cents per pound. She pays the clerk with a twenty-dollar bill. The clerk subtracts the total cost of the bananas from the twenty-dollar bill to determine the amount of change to give Zelma. Which expression represents the amount of change Zelma should receive?
(A) p - 20, (B) 20 - 40p, (C) 20 - 0.40p, (D) 0.40p - 20
Answer: C
Please answer the following question with just the correct option (A, B, C, or D) without any explanation or additional text.
Kerri ran the same distance in four different races. Her times were 18.04 seconds, 21.39 seconds, 12.99 seconds, and 14.14 seconds. If the individual times are rounded to the nearest one-tenth of a second, what is the estimate of Kerri's total time for all four races?
(A) '66.6 seconds', (B) '66.5 seconds', (C) '66 seconds', (D) '65.5 seconds'
Answer:","","","","","","","","","","","","true","2","","","","","","","","",""
"survey-html-form","12","236317","0.0-4.0-1.2","y746dya1xmdh555","59db7128e776fd00015ec895","67b62c430b9240ccd8986e70","67b631ad75880fd42ac94178","4","16225.59999999404","","","{""mcAnswer"":""B""}","","","Kerri ran the same distance in four different races. Her times were 18.04 seconds, 21.39 seconds, 12.99 seconds, and 14.14 seconds. If the individual times are rounded to the nearest one-tenth of a second, what is the estimate of Kerri's total time for all four races?","[""66.6 seconds"",""66.5 seconds"",""66 seconds"",""65.5 seconds""]","B","D","modiste","","B","268","algLinUCB_0.9","diff-topics","elementary_mathematics","The following are multiple choice questions about high_school_mathematics.
Colton and his dad bought a gallon of paint that cost $13. They also bought 2 brushes that cost $9 each. What was the total cost, not including tax, of the brushes and the paint they bought?
(A) $22, (B) $24, (C) $31, (D) $35
Answer: C
Solve for y. y – 2 + 3y = 10
(A) 2, (B) 3, (C) 4, (D) 5
Answer: B
Solve 3 over 2 * w = 66.
(A) 33, (B) 44, (C) 88, (D) 99
Answer: B
Write 5.875 as a mixed number or fraction in simplest form.
(A) 5 and 8 over 9, (B) 5 and 7 over 8, (C) 7 over 8, (D) 5 and 87 over 105
Answer: B
Solve the equation 124 = m + 34.
(A) 158, (B) 90, (C) 88, (D) 4,216
Answer: B
Zelma buys p pounds of bananas for 40 cents per pound. She pays the clerk with a twenty-dollar bill. The clerk subtracts the total cost of the bananas from the twenty-dollar bill to determine the amount of change to give Zelma. Which expression represents the amount of change Zelma should receive?
(A) p - 20, (B) 20 - 40p, (C) 20 - 0.40p, (D) 0.40p - 20
Answer: C
Please answer the following question with just the correct option (A, B, C, or D) without any explanation or additional text.
Kerri ran the same distance in four different races. Her times were 18.04 seconds, 21.39 seconds, 12.99 seconds, and 14.14 seconds. If the individual times are rounded to the nearest one-tenth of a second, what is the estimate of Kerri's total time for all four races?
(A) '66.6 seconds', (B) '66.5 seconds', (C) '66 seconds', (D) '65.5 seconds'
Answer:","","","","","","","","","","","","","","","","","","","","","",""
"","","","","","","","","","","","","","","","","","","","","","","","","","","","B","","","","","","","","","","","","","","","","","","","","",""
"","","","","","","","","","","","","","","","","","","","","","","","","","","","","false","114","-1","B","true","true","defer","[]","false","0","true","2","{""elementary_mathematics"":[""40/50"",""33/52"",""4/6""],""high_school_mathematics"":[""27/50"",""22/50"",""3 / 5""],""college_mathematics"":[""22/50"",""26/50"",""2 / 5""]}","{""elementary_mathematics"":false}","You should outsource this problem to a human agent","false","null","null","false","null",""
"image-keyboard-response","13","237819","0.0-4.0-2.2","y746dya1xmdh555","59db7128e776fd00015ec895","67b62c430b9240ccd8986e70","67b631ad75880fd42ac94178","4","null","","","null","","","Kerri ran the same distance in four different races. Her times were 18.04 seconds, 21.39 seconds, 12.99 seconds, and 14.14 seconds. If the individual times are rounded to the nearest one-tenth of a second, what is the estimate of Kerri's total time for all four races?","[""66.6 seconds"",""66.5 seconds"",""66 seconds"",""65.5 seconds""]","B","D","modiste","","B","268","algLinUCB_0.9","diff-topics","elementary_mathematics","The following are multiple choice questions about high_school_mathematics.
Colton and his dad bought a gallon of paint that cost $13. They also bought 2 brushes that cost $9 each. What was the total cost, not including tax, of the brushes and the paint they bought?
(A) $22, (B) $24, (C) $31, (D) $35
Answer: C
Solve for y. y – 2 + 3y = 10
(A) 2, (B) 3, (C) 4, (D) 5
Answer: B
Solve 3 over 2 * w = 66.
(A) 33, (B) 44, (C) 88, (D) 99
Answer: B
Write 5.875 as a mixed number or fraction in simplest form.
(A) 5 and 8 over 9, (B) 5 and 7 over 8, (C) 7 over 8, (D) 5 and 87 over 105
Answer: B
Solve the equation 124 = m + 34.
(A) 158, (B) 90, (C) 88, (D) 4,216
Answer: B
Zelma buys p pounds of bananas for 40 cents per pound. She pays the clerk with a twenty-dollar bill. The clerk subtracts the total cost of the bananas from the twenty-dollar bill to determine the amount of change to give Zelma. Which expression represents the amount of change Zelma should receive?
(A) p - 20, (B) 20 - 40p, (C) 20 - 0.40p, (D) 0.40p - 20
Answer: C
Please answer the following question with just the correct option (A, B, C, or D) without any explanation or additional text.
Kerri ran the same distance in four different races. Her times were 18.04 seconds, 21.39 seconds, 12.99 seconds, and 14.14 seconds. If the individual times are rounded to the nearest one-tenth of a second, what is the estimate of Kerri's total time for all four races?
(A) '66.6 seconds', (B) '66.5 seconds', (C) '66 seconds', (D) '65.5 seconds'
Answer:","","","","","","","","","","","","","","","","","","","","","","feedback_imgs/Correct.png"
"call-function","14","237819","0.0-4.0-0.3","y746dya1xmdh555","59db7128e776fd00015ec895","67b62c430b9240ccd8986e70","67b631ad75880fd42ac94178","4","","","","","","defer","The probability that a point (x, y) in R^2 is chosen follows a uniform random distribution within the region described by the inequality 0 < |x| + |y| < 1 . What is the probability that 2(x + y) > 1?","[""0"",""1/4"",""sqrt(2)/4"",""1/sqrt(2)""]","B","B","modiste","","B","293","algLinUCB_0.9","diff-topics","college_mathematics","The following are multiple choice questions about high_school_mathematics.
Colton and his dad bought a gallon of paint that cost $13. They also bought 2 brushes that cost $9 each. What was the total cost, not including tax, of the brushes and the paint they bought?
(A) $22, (B) $24, (C) $31, (D) $35
Answer: C
Solve for y. y – 2 + 3y = 10
(A) 2, (B) 3, (C) 4, (D) 5
Answer: B
Solve 3 over 2 * w = 66.
(A) 33, (B) 44, (C) 88, (D) 99
Answer: B
Write 5.875 as a mixed number or fraction in simplest form.
(A) 5 and 8 over 9, (B) 5 and 7 over 8, (C) 7 over 8, (D) 5 and 87 over 105
Answer: B
Solve the equation 124 = m + 34.
(A) 158, (B) 90, (C) 88, (D) 4,216
Answer: B
Zelma buys p pounds of bananas for 40 cents per pound. She pays the clerk with a twenty-dollar bill. The clerk subtracts the total cost of the bananas from the twenty-dollar bill to determine the amount of change to give Zelma. Which expression represents the amount of change Zelma should receive?
(A) p - 20, (B) 20 - 40p, (C) 20 - 0.40p, (D) 0.40p - 20
Answer: C
Please answer the following question with just the correct option (A, B, C, or D) without any explanation or additional text.
The probability that a point (x, y) in R^2 is chosen follows a uniform random distribution within the region described by the inequality 0 < |x| + |y| < 1 . What is the probability that 2(x + y) > 1?
(A) '0', (B) '1/4', (C) 'sqrt(2)/4', (D) '1/sqrt(2)'
Answer:","","","","","","","","","","","","true","2","","","","","","","","",""
"survey-html-form","15","257094","0.0-4.0-1.3","y746dya1xmdh555","59db7128e776fd00015ec895","67b62c430b9240ccd8986e70","67b631ad75880fd42ac94178","4","19273.70000001788","","","{""mcAnswer"":""B""}","","","The probability that a point (x, y) in R^2 is chosen follows a uniform random distribution within the region described by the inequality 0 < |x| + |y| < 1 . What is the probability that 2(x + y) > 1?","[""0"",""1/4"",""sqrt(2)/4"",""1/sqrt(2)""]","B","B","modiste","","B","293","algLinUCB_0.9","diff-topics","college_mathematics","The following are multiple choice questions about high_school_mathematics.
Colton and his dad bought a gallon of paint that cost $13. They also bought 2 brushes that cost $9 each. What was the total cost, not including tax, of the brushes and the paint they bought?
(A) $22, (B) $24, (C) $31, (D) $35
Answer: C
Solve for y. y – 2 + 3y = 10
(A) 2, (B) 3, (C) 4, (D) 5
Answer: B
Solve 3 over 2 * w = 66.
(A) 33, (B) 44, (C) 88, (D) 99
Answer: B
Write 5.875 as a mixed number or fraction in simplest form.
(A) 5 and 8 over 9, (B) 5 and 7 over 8, (C) 7 over 8, (D) 5 and 87 over 105
Answer: B
Solve the equation 124 = m + 34.
(A) 158, (B) 90, (C) 88, (D) 4,216
Answer: B
Zelma buys p pounds of bananas for 40 cents per pound. She pays the clerk with a twenty-dollar bill. The clerk subtracts the total cost of the bananas from the twenty-dollar bill to determine the amount of change to give Zelma. Which expression represents the amount of change Zelma should receive?
(A) p - 20, (B) 20 - 40p, (C) 20 - 0.40p, (D) 0.40p - 20
Answer: C
Please answer the following question with just the correct option (A, B, C, or D) without any explanation or additional text.
The probability that a point (x, y) in R^2 is chosen follows a uniform random distribution within the region described by the inequality 0 < |x| + |y| < 1 . What is the probability that 2(x + y) > 1?
(A) '0', (B) '1/4', (C) 'sqrt(2)/4', (D) '1/sqrt(2)'
Answer:","","","","","","","","","","","","","","","","","","","","","",""
"","","","","","","","","","","","","","","","","","","","","","","","","","","","B","","","","","","","","","","","","","","","","","","","","",""
"","","","","","","","","","","","","","","","","","","","","","","","","","","","","false","121","-1","B","true","true","defer","[]","false","0","true","2","{""elementary_mathematics"":[""40/50"",""33/52"",""4/6""],""high_school_mathematics"":[""27/50"",""22/50"",""3 / 5""],""college_mathematics"":[""22/50"",""27/51"",""2 / 5""]}","{""elementary_mathematics"":false,""college_mathematics"":false}","You should outsource this problem to the AI agent","false","null","true","null","null",""
"image-keyboard-response","16","258595","0.0-4.0-2.3","y746dya1xmdh555","59db7128e776fd00015ec895","67b62c430b9240ccd8986e70","67b631ad75880fd42ac94178","4","null","","","null","","","The probability that a point (x, y) in R^2 is chosen follows a uniform random distribution within the region described by the inequality 0 < |x| + |y| < 1 . What is the probability that 2(x + y) > 1?","[""0"",""1/4"",""sqrt(2)/4"",""1/sqrt(2)""]","B","B","modiste","","B","293","algLinUCB_0.9","diff-topics","college_mathematics","The following are multiple choice questions about high_school_mathematics.
Colton and his dad bought a gallon of paint that cost $13. They also bought 2 brushes that cost $9 each. What was the total cost, not including tax, of the brushes and the paint they bought?
(A) $22, (B) $24, (C) $31, (D) $35
Answer: C
Solve for y. y – 2 + 3y = 10
(A) 2, (B) 3, (C) 4, (D) 5
Answer: B
Solve 3 over 2 * w = 66.
(A) 33, (B) 44, (C) 88, (D) 99
Answer: B
Write 5.875 as a mixed number or fraction in simplest form.
(A) 5 and 8 over 9, (B) 5 and 7 over 8, (C) 7 over 8, (D) 5 and 87 over 105
Answer: B
Solve the equation 124 = m + 34.
(A) 158, (B) 90, (C) 88, (D) 4,216
Answer: B
Zelma buys p pounds of bananas for 40 cents per pound. She pays the clerk with a twenty-dollar bill. The clerk subtracts the total cost of the bananas from the twenty-dollar bill to determine the amount of change to give Zelma. Which expression represents the amount of change Zelma should receive?
(A) p - 20, (B) 20 - 40p, (C) 20 - 0.40p, (D) 0.40p - 20
Answer: C
Please answer the following question with just the correct option (A, B, C, or D) without any explanation or additional text.
The probability that a point (x, y) in R^2 is chosen follows a uniform random distribution within the region described by the inequality 0 < |x| + |y| < 1 . What is the probability that 2(x + y) > 1?
(A) '0', (B) '1/4', (C) 'sqrt(2)/4', (D) '1/sqrt(2)'
Answer:","","","","","","","","","","","","","","","","","","","","","","feedback_imgs/Correct.png"
"call-function","17","258596","0.0-4.0-0.4","y746dya1xmdh555","59db7128e776fd00015ec895","67b62c430b9240ccd8986e70","67b631ad75880fd42ac94178","4","","","","","","defer","Which statement is true?","[""If f(x) is continuous at x = c, then f′(c) exists."",""If f′(c) = 0, then f has a local maximum or minimum at (c, f (c))."",""If f′′(c) = 0, then the graph of f has an inflection point at (c, f (c))."",""If f is differentiable at x = c, then f is continuous at x = c.""]","D","D","modiste","","D","241","algLinUCB_0.9","diff-topics","high_school_mathematics","The following are multiple choice questions about high_school_mathematics.
Colton and his dad bought a gallon of paint that cost $13. They also bought 2 brushes that cost $9 each. What was the total cost, not including tax, of the brushes and the paint they bought?
(A) $22, (B) $24, (C) $31, (D) $35
Answer: C
Solve for y. y – 2 + 3y = 10
(A) 2, (B) 3, (C) 4, (D) 5
Answer: B
Solve 3 over 2 * w = 66.
(A) 33, (B) 44, (C) 88, (D) 99
Answer: B
Write 5.875 as a mixed number or fraction in simplest form.
(A) 5 and 8 over 9, (B) 5 and 7 over 8, (C) 7 over 8, (D) 5 and 87 over 105
Answer: B
Solve the equation 124 = m + 34.
(A) 158, (B) 90, (C) 88, (D) 4,216
Answer: B
Zelma buys p pounds of bananas for 40 cents per pound. She pays the clerk with a twenty-dollar bill. The clerk subtracts the total cost of the bananas from the twenty-dollar bill to determine the amount of change to give Zelma. Which expression represents the amount of change Zelma should receive?
(A) p - 20, (B) 20 - 40p, (C) 20 - 0.40p, (D) 0.40p - 20
Answer: C
Please answer the following question with just the correct option (A, B, C, or D) without any explanation or additional text.
Which statement is true?
(A) 'If f(x) is continuous at x = c, then f′(c) exists.', (B) 'If f′(c) = 0, then f has a local maximum or minimum at (c, f (c)).', (C) 'If f′′(c) = 0, then the graph of f has an inflection point at (c, f (c)).', (D) 'If f is differentiable at x = c, then f is continuous at x = c.'
Answer:","","","","","","","","","","","","true","2","","","","","","","","",""
"survey-html-form","18","277056","0.0-4.0-1.4","y746dya1xmdh555","59db7128e776fd00015ec895","67b62c430b9240ccd8986e70","67b631ad75880fd42ac94178","4","18460.09999999404","","","{""mcAnswer"":""D""}","","","Which statement is true?","[""If f(x) is continuous at x = c, then f′(c) exists."",""If f′(c) = 0, then f has a local maximum or minimum at (c, f (c))."",""If f′′(c) = 0, then the graph of f has an inflection point at (c, f (c))."",""If f is differentiable at x = c, then f is continuous at x = c.""]","D","D","modiste","","D","241","algLinUCB_0.9","diff-topics","high_school_mathematics","The following are multiple choice questions about high_school_mathematics.
Colton and his dad bought a gallon of paint that cost $13. They also bought 2 brushes that cost $9 each. What was the total cost, not including tax, of the brushes and the paint they bought?
(A) $22, (B) $24, (C) $31, (D) $35
Answer: C
Solve for y. y – 2 + 3y = 10
(A) 2, (B) 3, (C) 4, (D) 5
Answer: B
Solve 3 over 2 * w = 66.
(A) 33, (B) 44, (C) 88, (D) 99
Answer: B
Write 5.875 as a mixed number or fraction in simplest form.
(A) 5 and 8 over 9, (B) 5 and 7 over 8, (C) 7 over 8, (D) 5 and 87 over 105
Answer: B
Solve the equation 124 = m + 34.
(A) 158, (B) 90, (C) 88, (D) 4,216
Answer: B
Zelma buys p pounds of bananas for 40 cents per pound. She pays the clerk with a twenty-dollar bill. The clerk subtracts the total cost of the bananas from the twenty-dollar bill to determine the amount of change to give Zelma. Which expression represents the amount of change Zelma should receive?
(A) p - 20, (B) 20 - 40p, (C) 20 - 0.40p, (D) 0.40p - 20
Answer: C
Please answer the following question with just the correct option (A, B, C, or D) without any explanation or additional text.
Which statement is true?
(A) 'If f(x) is continuous at x = c, then f′(c) exists.', (B) 'If f′(c) = 0, then f has a local maximum or minimum at (c, f (c)).', (C) 'If f′′(c) = 0, then the graph of f has an inflection point at (c, f (c)).', (D) 'If f is differentiable at x = c, then f is continuous at x = c.'
Answer:","","","","","","","","","","","","","","","","","","","","","",""
"","","","","","","","","","","","","","","","","","","","","","","","","","","","D","","","","","","","","","","","","","","","","","","","","",""
"","","","","","","","","","","","","","","","","","","","","","","","","","","","","false","128","-1","D","true","true","defer","[]","false","0","true","2","{""elementary_mathematics"":[""40/50"",""33/52"",""4/6""],""high_school_mathematics"":[""27/50"",""23/51"",""3 / 5""],""college_mathematics"":[""22/50"",""27/51"",""2 / 5""]}","{""elementary_mathematics"":false,""college_mathematics"":false,""high_school_mathematics"":false}","You should attempt this problem by yourself","false","null","null","null","false",""
"image-keyboard-response","19","278560","0.0-4.0-2.4","y746dya1xmdh555","59db7128e776fd00015ec895","67b62c430b9240ccd8986e70","67b631ad75880fd42ac94178","4","null","","","null","","","Which statement is true?","[""If f(x) is continuous at x = c, then f′(c) exists."",""If f′(c) = 0, then f has a local maximum or minimum at (c, f (c))."",""If f′′(c) = 0, then the graph of f has an inflection point at (c, f (c))."",""If f is differentiable at x = c, then f is continuous at x = c.""]","D","D","modiste","","D","241","algLinUCB_0.9","diff-topics","high_school_mathematics","The following are multiple choice questions about high_school_mathematics.
Colton and his dad bought a gallon of paint that cost $13. They also bought 2 brushes that cost $9 each. What was the total cost, not including tax, of the brushes and the paint they bought?
(A) $22, (B) $24, (C) $31, (D) $35
Answer: C
Solve for y. y – 2 + 3y = 10
(A) 2, (B) 3, (C) 4, (D) 5
Answer: B
Solve 3 over 2 * w = 66.
(A) 33, (B) 44, (C) 88, (D) 99
Answer: B
Write 5.875 as a mixed number or fraction in simplest form.
(A) 5 and 8 over 9, (B) 5 and 7 over 8, (C) 7 over 8, (D) 5 and 87 over 105
Answer: B
Solve the equation 124 = m + 34.
(A) 158, (B) 90, (C) 88, (D) 4,216
Answer: B
Zelma buys p pounds of bananas for 40 cents per pound. She pays the clerk with a twenty-dollar bill. The clerk subtracts the total cost of the bananas from the twenty-dollar bill to determine the amount of change to give Zelma. Which expression represents the amount of change Zelma should receive?
(A) p - 20, (B) 20 - 40p, (C) 20 - 0.40p, (D) 0.40p - 20
Answer: C
Please answer the following question with just the correct option (A, B, C, or D) without any explanation or additional text.
Which statement is true?
(A) 'If f(x) is continuous at x = c, then f′(c) exists.', (B) 'If f′(c) = 0, then f has a local maximum or minimum at (c, f (c)).', (C) 'If f′′(c) = 0, then the graph of f has an inflection point at (c, f (c)).', (D) 'If f is differentiable at x = c, then f is continuous at x = c.'
Answer:","","","","","","","","","","","","","","","","","","","","","","feedback_imgs/Correct.png"
"call-function","20","278560","0.0-4.0-0.5","y746dya1xmdh555","59db7128e776fd00015ec895","67b62c430b9240ccd8986e70","67b631ad75880fd42ac94178","4","","","","","","defer","The map x -> axa^2 of a group G into itself is a homomorphism if and only if","[""G is abelian"",""G = {e}"",""a^3 = e"",""a^2 = a""]","A","A","modiste","","C","289","algLinUCB_0.9","diff-topics","college_mathematics","The following are multiple choice questions about high_school_mathematics.
Colton and his dad bought a gallon of paint that cost $13. They also bought 2 brushes that cost $9 each. What was the total cost, not including tax, of the brushes and the paint they bought?
(A) $22, (B) $24, (C) $31, (D) $35
Answer: C
Solve for y. y – 2 + 3y = 10
(A) 2, (B) 3, (C) 4, (D) 5
Answer: B
Solve 3 over 2 * w = 66.
(A) 33, (B) 44, (C) 88, (D) 99
Answer: B
Write 5.875 as a mixed number or fraction in simplest form.
(A) 5 and 8 over 9, (B) 5 and 7 over 8, (C) 7 over 8, (D) 5 and 87 over 105
Answer: B
Solve the equation 124 = m + 34.
(A) 158, (B) 90, (C) 88, (D) 4,216
Answer: B
Zelma buys p pounds of bananas for 40 cents per pound. She pays the clerk with a twenty-dollar bill. The clerk subtracts the total cost of the bananas from the twenty-dollar bill to determine the amount of change to give Zelma. Which expression represents the amount of change Zelma should receive?
(A) p - 20, (B) 20 - 40p, (C) 20 - 0.40p, (D) 0.40p - 20
Answer: C
Please answer the following question with just the correct option (A, B, C, or D) without any explanation or additional text.
The map x -> axa^2 of a group G into itself is a homomorphism if and only if
(A) 'G is abelian', (B) 'G = {e}', (C) 'a^3 = e', (D) 'a^2 = a'
Answer:","","","","","","","","","","","","true","2","","","","","","","","",""
"survey-html-form","21","299787","0.0-4.0-1.5","y746dya1xmdh555","59db7128e776fd00015ec895","67b62c430b9240ccd8986e70","67b631ad75880fd42ac94178","4","21226.80000001192","","","{""mcAnswer"":""A""}","","","The map x -> axa^2 of a group G into itself is a homomorphism if and only if","[""G is abelian"",""G = {e}"",""a^3 = e"",""a^2 = a""]","A","A","modiste","","C","289","algLinUCB_0.9","diff-topics","college_mathematics","The following are multiple choice questions about high_school_mathematics.
Colton and his dad bought a gallon of paint that cost $13. They also bought 2 brushes that cost $9 each. What was the total cost, not including tax, of the brushes and the paint they bought?
(A) $22, (B) $24, (C) $31, (D) $35
Answer: C
Solve for y. y – 2 + 3y = 10
(A) 2, (B) 3, (C) 4, (D) 5
Answer: B
Solve 3 over 2 * w = 66.
(A) 33, (B) 44, (C) 88, (D) 99
Answer: B
Write 5.875 as a mixed number or fraction in simplest form.
(A) 5 and 8 over 9, (B) 5 and 7 over 8, (C) 7 over 8, (D) 5 and 87 over 105
Answer: B
Solve the equation 124 = m + 34.
(A) 158, (B) 90, (C) 88, (D) 4,216
Answer: B
Zelma buys p pounds of bananas for 40 cents per pound. She pays the clerk with a twenty-dollar bill. The clerk subtracts the total cost of the bananas from the twenty-dollar bill to determine the amount of change to give Zelma. Which expression represents the amount of change Zelma should receive?
(A) p - 20, (B) 20 - 40p, (C) 20 - 0.40p, (D) 0.40p - 20
Answer: C
Please answer the following question with just the correct option (A, B, C, or D) without any explanation or additional text.
The map x -> axa^2 of a group G into itself is a homomorphism if and only if
(A) 'G is abelian', (B) 'G = {e}', (C) 'a^3 = e', (D) 'a^2 = a'
Answer:","","","","","","","","","","","","","","","","","","","","","",""
"","","","","","","","","","","","","","","","","","","","","","","","","","","","A","","","","","","","","","","","","","","","","","","","","",""
"","","","","","","","","","","","","","","","","","","","","","","","","","","","","false","125","-1","A","false","false","defer","[]","false","0","true","2","{""elementary_mathematics"":[""40/50"",""33/52"",""4/6""],""high_school_mathematics"":[""27/50"",""23/51"",""3 / 5""],""college_mathematics"":[""22/50"",""27/52"",""2 / 5""]}","{""elementary_mathematics"":false,""college_mathematics"":false,""high_school_mathematics"":false}","You should outsource this problem to the AI agent","false","null","true","null","null",""
"image-keyboard-response","22","301293","0.0-4.0-2.5","y746dya1xmdh555","59db7128e776fd00015ec895","67b62c430b9240ccd8986e70","67b631ad75880fd42ac94178","4","null","","","null","","","The map x -> axa^2 of a group G into itself is a homomorphism if and only if","[""G is abelian"",""G = {e}"",""a^3 = e"",""a^2 = a""]","A","A","modiste","","C","289","algLinUCB_0.9","diff-topics","college_mathematics","The following are multiple choice questions about high_school_mathematics.
Colton and his dad bought a gallon of paint that cost $13. They also bought 2 brushes that cost $9 each. What was the total cost, not including tax, of the brushes and the paint they bought?
(A) $22, (B) $24, (C) $31, (D) $35
Answer: C
Solve for y. y – 2 + 3y = 10
(A) 2, (B) 3, (C) 4, (D) 5
Answer: B
Solve 3 over 2 * w = 66.
(A) 33, (B) 44, (C) 88, (D) 99
Answer: B
Write 5.875 as a mixed number or fraction in simplest form.
(A) 5 and 8 over 9, (B) 5 and 7 over 8, (C) 7 over 8, (D) 5 and 87 over 105
Answer: B
Solve the equation 124 = m + 34.
(A) 158, (B) 90, (C) 88, (D) 4,216
Answer: B
Zelma buys p pounds of bananas for 40 cents per pound. She pays the clerk with a twenty-dollar bill. The clerk subtracts the total cost of the bananas from the twenty-dollar bill to determine the amount of change to give Zelma. Which expression represents the amount of change Zelma should receive?
(A) p - 20, (B) 20 - 40p, (C) 20 - 0.40p, (D) 0.40p - 20
Answer: C
Please answer the following question with just the correct option (A, B, C, or D) without any explanation or additional text.
The map x -> axa^2 of a group G into itself is a homomorphism if and only if
(A) 'G is abelian', (B) 'G = {e}', (C) 'a^3 = e', (D) 'a^2 = a'
Answer:","","","","","","","","","","","","","","","","","","","","","","feedback_imgs/Incorrect.png"
"call-function","23","301293","0.0-4.0-0.6","y746dya1xmdh555","59db7128e776fd00015ec895","67b62c430b9240ccd8986e70","67b631ad75880fd42ac94178","4","","","","","","defer","Ms. Gutierrez needs to order rope for her gym class of 32 students. Each student will receive a piece of rope that is 5 feet 8 inches long. What is the total length of rope Ms. Gutierrez needs to order for her class?","[""106 feet 8 inches"",""154 feet 8 inches"",""160 feet 8 inches"",""181 feet 4 inches""]","D","D","modiste","","D","275","algLinUCB_0.9","diff-topics","elementary_mathematics","The following are multiple choice questions about high_school_mathematics.
Colton and his dad bought a gallon of paint that cost $13. They also bought 2 brushes that cost $9 each. What was the total cost, not including tax, of the brushes and the paint they bought?
(A) $22, (B) $24, (C) $31, (D) $35
Answer: C
Solve for y. y – 2 + 3y = 10
(A) 2, (B) 3, (C) 4, (D) 5
Answer: B
Solve 3 over 2 * w = 66.
(A) 33, (B) 44, (C) 88, (D) 99
Answer: B
Write 5.875 as a mixed number or fraction in simplest form.
(A) 5 and 8 over 9, (B) 5 and 7 over 8, (C) 7 over 8, (D) 5 and 87 over 105
Answer: B
Solve the equation 124 = m + 34.
(A) 158, (B) 90, (C) 88, (D) 4,216
Answer: B
Zelma buys p pounds of bananas for 40 cents per pound. She pays the clerk with a twenty-dollar bill. The clerk subtracts the total cost of the bananas from the twenty-dollar bill to determine the amount of change to give Zelma. Which expression represents the amount of change Zelma should receive?
(A) p - 20, (B) 20 - 40p, (C) 20 - 0.40p, (D) 0.40p - 20
Answer: C
Please answer the following question with just the correct option (A, B, C, or D) without any explanation or additional text.
Ms. Gutierrez needs to order rope for her gym class of 32 students. Each student will receive a piece of rope that is 5 feet 8 inches long. What is the total length of rope Ms. Gutierrez needs to order for her class?
(A) '106 feet 8 inches', (B) '154 feet 8 inches', (C) '160 feet 8 inches', (D) '181 feet 4 inches'
Answer:","","","","","","","","","","","","true","2","","","","","","","","",""
"survey-html-form","24","336735","0.0-4.0-1.6","y746dya1xmdh555","59db7128e776fd00015ec895","67b62c430b9240ccd8986e70","67b631ad75880fd42ac94178","4","35441.80000001192","","","{""mcAnswer"":""D""}","","","Ms. Gutierrez needs to order rope for her gym class of 32 students. Each student will receive a piece of rope that is 5 feet 8 inches long. What is the total length of rope Ms. Gutierrez needs to order for her class?","[""106 feet 8 inches"",""154 feet 8 inches"",""160 feet 8 inches"",""181 feet 4 inches""]","D","D","modiste","","D","275","algLinUCB_0.9","diff-topics","elementary_mathematics","The following are multiple choice questions about high_school_mathematics.
Colton and his dad bought a gallon of paint that cost $13. They also bought 2 brushes that cost $9 each. What was the total cost, not including tax, of the brushes and the paint they bought?
(A) $22, (B) $24, (C) $31, (D) $35
Answer: C
Solve for y. y – 2 + 3y = 10
(A) 2, (B) 3, (C) 4, (D) 5
Answer: B
Solve 3 over 2 * w = 66.
(A) 33, (B) 44, (C) 88, (D) 99
Answer: B
Write 5.875 as a mixed number or fraction in simplest form.
(A) 5 and 8 over 9, (B) 5 and 7 over 8, (C) 7 over 8, (D) 5 and 87 over 105
Answer: B
Solve the equation 124 = m + 34.
(A) 158, (B) 90, (C) 88, (D) 4,216
Answer: B
Zelma buys p pounds of bananas for 40 cents per pound. She pays the clerk with a twenty-dollar bill. The clerk subtracts the total cost of the bananas from the twenty-dollar bill to determine the amount of change to give Zelma. Which expression represents the amount of change Zelma should receive?
(A) p - 20, (B) 20 - 40p, (C) 20 - 0.40p, (D) 0.40p - 20
Answer: C
Please answer the following question with just the correct option (A, B, C, or D) without any explanation or additional text.
Ms. Gutierrez needs to order rope for her gym class of 32 students. Each student will receive a piece of rope that is 5 feet 8 inches long. What is the total length of rope Ms. Gutierrez needs to order for her class?
(A) '106 feet 8 inches', (B) '154 feet 8 inches', (C) '160 feet 8 inches', (D) '181 feet 4 inches'
Answer:","","","","","","","","","","","","","","","","","","","","","",""
"","","","","","","","","","","","","","","","","","","","","","","","","","","","D","","","","","","","","","","","","","","","","","","","","",""
"","","","","","","","","","","","","","","","","","","","","","","","","","","","","false","132","-1","D","true","true","defer","[]","false","0","true","2","{""elementary_mathematics"":[""40/50"",""34/53"",""4/6""],""high_school_mathematics"":[""27/50"",""23/51"",""3 / 5""],""college_mathematics"":[""22/50"",""27/52"",""2 / 5""]}","{""elementary_mathematics"":false,""college_mathematics"":false,""high_school_mathematics"":false}","You should outsource this problem to a human agent","false","null","null","false","null",""
"image-keyboard-response","25","338240","0.0-4.0-2.6","y746dya1xmdh555","59db7128e776fd00015ec895","67b62c430b9240ccd8986e70","67b631ad75880fd42ac94178","4","null","","","null","","","Ms. Gutierrez needs to order rope for her gym class of 32 students. Each student will receive a piece of rope that is 5 feet 8 inches long. What is the total length of rope Ms. Gutierrez needs to order for her class?","[""106 feet 8 inches"",""154 feet 8 inches"",""160 feet 8 inches"",""181 feet 4 inches""]","D","D","modiste","","D","275","algLinUCB_0.9","diff-topics","elementary_mathematics","The following are multiple choice questions about high_school_mathematics.
Colton and his dad bought a gallon of paint that cost $13. They also bought 2 brushes that cost $9 each. What was the total cost, not including tax, of the brushes and the paint they bought?
(A) $22, (B) $24, (C) $31, (D) $35
Answer: C
Solve for y. y – 2 + 3y = 10
(A) 2, (B) 3, (C) 4, (D) 5
Answer: B
Solve 3 over 2 * w = 66.
(A) 33, (B) 44, (C) 88, (D) 99
Answer: B
Write 5.875 as a mixed number or fraction in simplest form.
(A) 5 and 8 over 9, (B) 5 and 7 over 8, (C) 7 over 8, (D) 5 and 87 over 105
Answer: B
Solve the equation 124 = m + 34.
(A) 158, (B) 90, (C) 88, (D) 4,216
Answer: B
Zelma buys p pounds of bananas for 40 cents per pound. She pays the clerk with a twenty-dollar bill. The clerk subtracts the total cost of the bananas from the twenty-dollar bill to determine the amount of change to give Zelma. Which expression represents the amount of change Zelma should receive?
(A) p - 20, (B) 20 - 40p, (C) 20 - 0.40p, (D) 0.40p - 20
Answer: C
Please answer the following question with just the correct option (A, B, C, or D) without any explanation or additional text.
Ms. Gutierrez needs to order rope for her gym class of 32 students. Each student will receive a piece of rope that is 5 feet 8 inches long. What is the total length of rope Ms. Gutierrez needs to order for her class?
(A) '106 feet 8 inches', (B) '154 feet 8 inches', (C) '160 feet 8 inches', (D) '181 feet 4 inches'
Answer:","","","","","","","","","","","","","","","","","","","","","","feedback_imgs/Correct.png"
"call-function","26","338240","0.0-4.0-0.7","y746dya1xmdh555","59db7128e776fd00015ec895","67b62c430b9240ccd8986e70","67b631ad75880fd42ac94178","4","","","","","","defer","Given that a and b are real numbers such that -3leq aleq1 and -2leq bleq 4, and values for a and b are chosen at random, what is the probability that the product acdot b is positive? Express your answer as a common fraction.","[""5/12"",""5/11"",""7/12"",""5/17""]","A","A","modiste","","A","259","algLinUCB_0.9","diff-topics","high_school_mathematics","The following are multiple choice questions about high_school_mathematics.
Colton and his dad bought a gallon of paint that cost $13. They also bought 2 brushes that cost $9 each. What was the total cost, not including tax, of the brushes and the paint they bought?
(A) $22, (B) $24, (C) $31, (D) $35
Answer: C
Solve for y. y – 2 + 3y = 10
(A) 2, (B) 3, (C) 4, (D) 5
Answer: B
Solve 3 over 2 * w = 66.
(A) 33, (B) 44, (C) 88, (D) 99
Answer: B
Write 5.875 as a mixed number or fraction in simplest form.
(A) 5 and 8 over 9, (B) 5 and 7 over 8, (C) 7 over 8, (D) 5 and 87 over 105
Answer: B
Solve the equation 124 = m + 34.
(A) 158, (B) 90, (C) 88, (D) 4,216
Answer: B
Zelma buys p pounds of bananas for 40 cents per pound. She pays the clerk with a twenty-dollar bill. The clerk subtracts the total cost of the bananas from the twenty-dollar bill to determine the amount of change to give Zelma. Which expression represents the amount of change Zelma should receive?
(A) p - 20, (B) 20 - 40p, (C) 20 - 0.40p, (D) 0.40p - 20
Answer: C
Please answer the following question with just the correct option (A, B, C, or D) without any explanation or additional text.
Given that a and b are real numbers such that -3leq aleq1 and -2leq bleq 4, and values for a and b are chosen at random, what is the probability that the product acdot b is positive? Express your answer as a common fraction.
(A) '5/12', (B) '5/11', (C) '7/12', (D) '5/17'
Answer:","","","","","","","","","","","","true","2","","","","","","","","",""
"survey-html-form","27","359760","0.0-4.0-1.7","y746dya1xmdh555","59db7128e776fd00015ec895","67b62c430b9240ccd8986e70","67b631ad75880fd42ac94178","4","21519.30000001192","","","{""mcAnswer"":""A""}","","","Given that a and b are real numbers such that -3leq aleq1 and -2leq bleq 4, and values for a and b are chosen at random, what is the probability that the product acdot b is positive? Express your answer as a common fraction.","[""5/12"",""5/11"",""7/12"",""5/17""]","A","A","modiste","","A","259","algLinUCB_0.9","diff-topics","high_school_mathematics","The following are multiple choice questions about high_school_mathematics.
Colton and his dad bought a gallon of paint that cost $13. They also bought 2 brushes that cost $9 each. What was the total cost, not including tax, of the brushes and the paint they bought?
(A) $22, (B) $24, (C) $31, (D) $35
Answer: C
Solve for y. y – 2 + 3y = 10
(A) 2, (B) 3, (C) 4, (D) 5
Answer: B
Solve 3 over 2 * w = 66.
(A) 33, (B) 44, (C) 88, (D) 99
Answer: B
Write 5.875 as a mixed number or fraction in simplest form.
(A) 5 and 8 over 9, (B) 5 and 7 over 8, (C) 7 over 8, (D) 5 and 87 over 105
Answer: B
Solve the equation 124 = m + 34.
(A) 158, (B) 90, (C) 88, (D) 4,216
Answer: B
Zelma buys p pounds of bananas for 40 cents per pound. She pays the clerk with a twenty-dollar bill. The clerk subtracts the total cost of the bananas from the twenty-dollar bill to determine the amount of change to give Zelma. Which expression represents the amount of change Zelma should receive?
(A) p - 20, (B) 20 - 40p, (C) 20 - 0.40p, (D) 0.40p - 20
Answer: C
Please answer the following question with just the correct option (A, B, C, or D) without any explanation or additional text.
Given that a and b are real numbers such that -3leq aleq1 and -2leq bleq 4, and values for a and b are chosen at random, what is the probability that the product acdot b is positive? Express your answer as a common fraction.
(A) '5/12', (B) '5/11', (C) '7/12', (D) '5/17'
Answer:","","","","","","","","","","","","","","","","","","","","","",""
"","","","","","","","","","","","","","","","","","","","","","","","","","","","A","","","","","","","","","","","","","","","","","","","","",""
"","","","","","","","","","","","","","","","","","","","","","","","","","","","","false","139","-1","A","true","true","defer","[]","false","0","true","2","{""elementary_mathematics"":[""40/50"",""34/53"",""4/6""],""high_school_mathematics"":[""27/50"",""24/52"",""3 / 5""],""college_mathematics"":[""22/50"",""27/52"",""2 / 5""]}","{""elementary_mathematics"":false,""college_mathematics"":false,""high_school_mathematics"":false}","You should attempt this problem by yourself","false","null","null","null","false",""
"image-keyboard-response","28","361261","0.0-4.0-2.7","y746dya1xmdh555","59db7128e776fd00015ec895","67b62c430b9240ccd8986e70","67b631ad75880fd42ac94178","4","null","","","null","","","Given that a and b are real numbers such that -3leq aleq1 and -2leq bleq 4, and values for a and b are chosen at random, what is the probability that the product acdot b is positive? Express your answer as a common fraction.","[""5/12"",""5/11"",""7/12"",""5/17""]","A","A","modiste","","A","259","algLinUCB_0.9","diff-topics","high_school_mathematics","The following are multiple choice questions about high_school_mathematics.
Colton and his dad bought a gallon of paint that cost $13. They also bought 2 brushes that cost $9 each. What was the total cost, not including tax, of the brushes and the paint they bought?
(A) $22, (B) $24, (C) $31, (D) $35
Answer: C
Solve for y. y – 2 + 3y = 10
(A) 2, (B) 3, (C) 4, (D) 5
Answer: B
Solve 3 over 2 * w = 66.
(A) 33, (B) 44, (C) 88, (D) 99
Answer: B
Write 5.875 as a mixed number or fraction in simplest form.
(A) 5 and 8 over 9, (B) 5 and 7 over 8, (C) 7 over 8, (D) 5 and 87 over 105
Answer: B
Solve the equation 124 = m + 34.
(A) 158, (B) 90, (C) 88, (D) 4,216
Answer: B
Zelma buys p pounds of bananas for 40 cents per pound. She pays the clerk with a twenty-dollar bill. The clerk subtracts the total cost of the bananas from the twenty-dollar bill to determine the amount of change to give Zelma. Which expression represents the amount of change Zelma should receive?
(A) p - 20, (B) 20 - 40p, (C) 20 - 0.40p, (D) 0.40p - 20
Answer: C
Please answer the following question with just the correct option (A, B, C, or D) without any explanation or additional text.
Given that a and b are real numbers such that -3leq aleq1 and -2leq bleq 4, and values for a and b are chosen at random, what is the probability that the product acdot b is positive? Express your answer as a common fraction.
(A) '5/12', (B) '5/11', (C) '7/12', (D) '5/17'
Answer:","","","","","","","","","","","","","","","","","","","","","","feedback_imgs/Correct.png"
"call-function","29","361261","0.0-4.0-0.8","y746dya1xmdh555","59db7128e776fd00015ec895","67b62c430b9240ccd8986e70","67b631ad75880fd42ac94178","4","","","","","","defer","Simplify k-3/2 + 3k+1+3k+1/2.","[""3k+1"",""5k"",""3k"",""1""]","B","B","modiste","","B","250","algLinUCB_0.9","diff-topics","high_school_mathematics","The following are multiple choice questions about high_school_mathematics.
Colton and his dad bought a gallon of paint that cost $13. They also bought 2 brushes that cost $9 each. What was the total cost, not including tax, of the brushes and the paint they bought?
(A) $22, (B) $24, (C) $31, (D) $35
Answer: C
Solve for y. y – 2 + 3y = 10
(A) 2, (B) 3, (C) 4, (D) 5
Answer: B
Solve 3 over 2 * w = 66.
(A) 33, (B) 44, (C) 88, (D) 99
Answer: B
Write 5.875 as a mixed number or fraction in simplest form.
(A) 5 and 8 over 9, (B) 5 and 7 over 8, (C) 7 over 8, (D) 5 and 87 over 105
Answer: B
Solve the equation 124 = m + 34.
(A) 158, (B) 90, (C) 88, (D) 4,216
Answer: B
Zelma buys p pounds of bananas for 40 cents per pound. She pays the clerk with a twenty-dollar bill. The clerk subtracts the total cost of the bananas from the twenty-dollar bill to determine the amount of change to give Zelma. Which expression represents the amount of change Zelma should receive?
(A) p - 20, (B) 20 - 40p, (C) 20 - 0.40p, (D) 0.40p - 20
Answer: C
Please answer the following question with just the correct option (A, B, C, or D) without any explanation or additional text.
Simplify k-3/2 + 3k+1+3k+1/2.
(A) '3k+1', (B) '5k', (C) '3k', (D) '1'
Answer:","","","","","","","","","","","","true","2","","","","","","","","",""
"survey-html-form","30","374759","0.0-4.0-1.8","y746dya1xmdh555","59db7128e776fd00015ec895","67b62c430b9240ccd8986e70","67b631ad75880fd42ac94178","4","13497","","","{""mcAnswer"":""B""}","","","Simplify k-3/2 + 3k+1+3k+1/2.","[""3k+1"",""5k"",""3k"",""1""]","B","B","modiste","","B","250","algLinUCB_0.9","diff-topics","high_school_mathematics","The following are multiple choice questions about high_school_mathematics.
Colton and his dad bought a gallon of paint that cost $13. They also bought 2 brushes that cost $9 each. What was the total cost, not including tax, of the brushes and the paint they bought?
(A) $22, (B) $24, (C) $31, (D) $35
Answer: C
Solve for y. y – 2 + 3y = 10
(A) 2, (B) 3, (C) 4, (D) 5
Answer: B
Solve 3 over 2 * w = 66.
(A) 33, (B) 44, (C) 88, (D) 99
Answer: B
Write 5.875 as a mixed number or fraction in simplest form.
(A) 5 and 8 over 9, (B) 5 and 7 over 8, (C) 7 over 8, (D) 5 and 87 over 105
Answer: B
Solve the equation 124 = m + 34.
(A) 158, (B) 90, (C) 88, (D) 4,216
Answer: B
Zelma buys p pounds of bananas for 40 cents per pound. She pays the clerk with a twenty-dollar bill. The clerk subtracts the total cost of the bananas from the twenty-dollar bill to determine the amount of change to give Zelma. Which expression represents the amount of change Zelma should receive?
(A) p - 20, (B) 20 - 40p, (C) 20 - 0.40p, (D) 0.40p - 20
Answer: C
Please answer the following question with just the correct option (A, B, C, or D) without any explanation or additional text.
Simplify k-3/2 + 3k+1+3k+1/2.
(A) '3k+1', (B) '5k', (C) '3k', (D) '1'
Answer:","","","","","","","","","","","","","","","","","","","","","",""
"","","","","","","","","","","","","","","","","","","","","","","","","","","","B","","","","","","","","","","","","","","","","","","","","",""
"","","","","","","","","","","","","","","","","","","","","","","","","","","","","false","146","-1","B","true","true","defer","[]","false","0","true","2","{""elementary_mathematics"":[""40/50"",""34/53"",""4/6""],""high_school_mathematics"":[""27/50"",""25/53"",""3 / 5""],""college_mathematics"":[""22/50"",""27/52"",""2 / 5""]}","{""elementary_mathematics"":false,""college_mathematics"":false,""high_school_mathematics"":false}","You should attempt this problem by yourself","false","null","null","null","false",""
"image-keyboard-response","31","376260","0.0-4.0-2.8","y746dya1xmdh555","59db7128e776fd00015ec895","67b62c430b9240ccd8986e70","67b631ad75880fd42ac94178","4","null","","","null","","","Simplify k-3/2 + 3k+1+3k+1/2.","[""3k+1"",""5k"",""3k"",""1""]","B","B","modiste","","B","250","algLinUCB_0.9","diff-topics","high_school_mathematics","The following are multiple choice questions about high_school_mathematics.
Colton and his dad bought a gallon of paint that cost $13. They also bought 2 brushes that cost $9 each. What was the total cost, not including tax, of the brushes and the paint they bought?
(A) $22, (B) $24, (C) $31, (D) $35
Answer: C
Solve for y. y – 2 + 3y = 10
(A) 2, (B) 3, (C) 4, (D) 5
Answer: B
Solve 3 over 2 * w = 66.
(A) 33, (B) 44, (C) 88, (D) 99
Answer: B
Write 5.875 as a mixed number or fraction in simplest form.
(A) 5 and 8 over 9, (B) 5 and 7 over 8, (C) 7 over 8, (D) 5 and 87 over 105
Answer: B
Solve the equation 124 = m + 34.
(A) 158, (B) 90, (C) 88, (D) 4,216
Answer: B
Zelma buys p pounds of bananas for 40 cents per pound. She pays the clerk with a twenty-dollar bill. The clerk subtracts the total cost of the bananas from the twenty-dollar bill to determine the amount of change to give Zelma. Which expression represents the amount of change Zelma should receive?
(A) p - 20, (B) 20 - 40p, (C) 20 - 0.40p, (D) 0.40p - 20
Answer: C
Please answer the following question with just the correct option (A, B, C, or D) without any explanation or additional text.
Simplify k-3/2 + 3k+1+3k+1/2.
(A) '3k+1', (B) '5k', (C) '3k', (D) '1'
Answer:","","","","","","","","","","","","","","","","","","","","","","feedback_imgs/Correct.png"
"call-function","32","376260","0.0-4.0-0.9","y746dya1xmdh555","59db7128e776fd00015ec895","67b62c430b9240ccd8986e70","67b631ad75880fd42ac94178","4","","","","","","defer","Which of the following circles has the greatest number of points of intersection with the parabola x^2 = y + 4 ?","[""x^2 + y^2 = 1"",""x^2 + y^2 = 2"",""x^2 + y^2 = 9"",""x^2 + y^2 = 16""]","C","D","modiste","","C","297","algLinUCB_0.9","diff-topics","college_mathematics","The following are multiple choice questions about high_school_mathematics.
Colton and his dad bought a gallon of paint that cost $13. They also bought 2 brushes that cost $9 each. What was the total cost, not including tax, of the brushes and the paint they bought?
(A) $22, (B) $24, (C) $31, (D) $35
Answer: C
Solve for y. y – 2 + 3y = 10
(A) 2, (B) 3, (C) 4, (D) 5
Answer: B
Solve 3 over 2 * w = 66.
(A) 33, (B) 44, (C) 88, (D) 99
Answer: B
Write 5.875 as a mixed number or fraction in simplest form.
(A) 5 and 8 over 9, (B) 5 and 7 over 8, (C) 7 over 8, (D) 5 and 87 over 105
Answer: B
Solve the equation 124 = m + 34.
(A) 158, (B) 90, (C) 88, (D) 4,216
Answer: B
Zelma buys p pounds of bananas for 40 cents per pound. She pays the clerk with a twenty-dollar bill. The clerk subtracts the total cost of the bananas from the twenty-dollar bill to determine the amount of change to give Zelma. Which expression represents the amount of change Zelma should receive?
(A) p - 20, (B) 20 - 40p, (C) 20 - 0.40p, (D) 0.40p - 20
Answer: C
Please answer the following question with just the correct option (A, B, C, or D) without any explanation or additional text.
Which of the following circles has the greatest number of points of intersection with the parabola x^2 = y + 4 ?
(A) 'x^2 + y^2 = 1', (B) 'x^2 + y^2 = 2', (C) 'x^2 + y^2 = 9', (D) 'x^2 + y^2 = 16'
Answer:","","","","","","","","","","","","true","2","","","","","","","","",""
"survey-html-form","33","391637","0.0-4.0-1.9","y746dya1xmdh555","59db7128e776fd00015ec895","67b62c430b9240ccd8986e70","67b631ad75880fd42ac94178","4","15376.59999999404","","","{""mcAnswer"":""C""}","","","Which of the following circles has the greatest number of points of intersection with the parabola x^2 = y + 4 ?","[""x^2 + y^2 = 1"",""x^2 + y^2 = 2"",""x^2 + y^2 = 9"",""x^2 + y^2 = 16""]","C","D","modiste","","C","297","algLinUCB_0.9","diff-topics","college_mathematics","The following are multiple choice questions about high_school_mathematics.
Colton and his dad bought a gallon of paint that cost $13. They also bought 2 brushes that cost $9 each. What was the total cost, not including tax, of the brushes and the paint they bought?
(A) $22, (B) $24, (C) $31, (D) $35
Answer: C
Solve for y. y – 2 + 3y = 10
(A) 2, (B) 3, (C) 4, (D) 5
Answer: B
Solve 3 over 2 * w = 66.
(A) 33, (B) 44, (C) 88, (D) 99
Answer: B
Write 5.875 as a mixed number or fraction in simplest form.
(A) 5 and 8 over 9, (B) 5 and 7 over 8, (C) 7 over 8, (D) 5 and 87 over 105
Answer: B
Solve the equation 124 = m + 34.
(A) 158, (B) 90, (C) 88, (D) 4,216
Answer: B
Zelma buys p pounds of bananas for 40 cents per pound. She pays the clerk with a twenty-dollar bill. The clerk subtracts the total cost of the bananas from the twenty-dollar bill to determine the amount of change to give Zelma. Which expression represents the amount of change Zelma should receive?
(A) p - 20, (B) 20 - 40p, (C) 20 - 0.40p, (D) 0.40p - 20
Answer: C
Please answer the following question with just the correct option (A, B, C, or D) without any explanation or additional text.
Which of the following circles has the greatest number of points of intersection with the parabola x^2 = y + 4 ?
(A) 'x^2 + y^2 = 1', (B) 'x^2 + y^2 = 2', (C) 'x^2 + y^2 = 9', (D) 'x^2 + y^2 = 16'
Answer:","","","","","","","","","","","","","","","","","","","","","",""
"","","","","","","","","","","","","","","","","","","","","","","","","","","","C","","","","","","","","","","","","","","","","","","","","",""
"","","","","","","","","","","","","","","","","","","","","","","","","","","","","false","153","-1","C","true","true","defer","[]","false","0","true","2","{""elementary_mathematics"":[""40/50"",""34/53"",""4/6""],""high_school_mathematics"":[""27/50"",""25/53"",""3 / 5""],""college_mathematics"":[""22/50"",""28/53"",""2 / 5""]}","{""elementary_mathematics"":false,""college_mathematics"":false,""high_school_mathematics"":false}","You should outsource this problem to the AI agent","false","null","true","null","null",""
"image-keyboard-response","34","393140","0.0-4.0-2.9","y746dya1xmdh555","59db7128e776fd00015ec895","67b62c430b9240ccd8986e70","67b631ad75880fd42ac94178","4","null","","","null","","","Which of the following circles has the greatest number of points of intersection with the parabola x^2 = y + 4 ?","[""x^2 + y^2 = 1"",""x^2 + y^2 = 2"",""x^2 + y^2 = 9"",""x^2 + y^2 = 16""]","C","D","modiste","","C","297","algLinUCB_0.9","diff-topics","college_mathematics","The following are multiple choice questions about high_school_mathematics.
Colton and his dad bought a gallon of paint that cost $13. They also bought 2 brushes that cost $9 each. What was the total cost, not including tax, of the brushes and the paint they bought?
(A) $22, (B) $24, (C) $31, (D) $35
Answer: C
Solve for y. y – 2 + 3y = 10
(A) 2, (B) 3, (C) 4, (D) 5
Answer: B
Solve 3 over 2 * w = 66.
(A) 33, (B) 44, (C) 88, (D) 99
Answer: B
Write 5.875 as a mixed number or fraction in simplest form.
(A) 5 and 8 over 9, (B) 5 and 7 over 8, (C) 7 over 8, (D) 5 and 87 over 105
Answer: B
Solve the equation 124 = m + 34.
(A) 158, (B) 90, (C) 88, (D) 4,216
Answer: B
Zelma buys p pounds of bananas for 40 cents per pound. She pays the clerk with a twenty-dollar bill. The clerk subtracts the total cost of the bananas from the twenty-dollar bill to determine the amount of change to give Zelma. Which expression represents the amount of change Zelma should receive?
(A) p - 20, (B) 20 - 40p, (C) 20 - 0.40p, (D) 0.40p - 20
Answer: C
Please answer the following question with just the correct option (A, B, C, or D) without any explanation or additional text.
Which of the following circles has the greatest number of points of intersection with the parabola x^2 = y + 4 ?
(A) 'x^2 + y^2 = 1', (B) 'x^2 + y^2 = 2', (C) 'x^2 + y^2 = 9', (D) 'x^2 + y^2 = 16'
Answer:","","","","","","","","","","","","","","","","","","","","","","feedback_imgs/Correct.png"
"call-function","35","393140","0.0-4.0-0.10","y746dya1xmdh555","59db7128e776fd00015ec895","67b62c430b9240ccd8986e70","67b631ad75880fd42ac94178","4","","","","","","defer","If A is a subset of the real line R and A contains each rational number, which of the following must be true?","[""If A is open, then A = R."",""If A is closed, then A = R."",""If A is uncountable, then A = R."",""If A is uncountable, then A is open.""]","B","C","modiste","","B","285","algLinUCB_0.9","diff-topics","college_mathematics","The following are multiple choice questions about high_school_mathematics.
Colton and his dad bought a gallon of paint that cost $13. They also bought 2 brushes that cost $9 each. What was the total cost, not including tax, of the brushes and the paint they bought?
(A) $22, (B) $24, (C) $31, (D) $35
Answer: C
Solve for y. y – 2 + 3y = 10
(A) 2, (B) 3, (C) 4, (D) 5
Answer: B
Solve 3 over 2 * w = 66.
(A) 33, (B) 44, (C) 88, (D) 99
Answer: B
Write 5.875 as a mixed number or fraction in simplest form.
(A) 5 and 8 over 9, (B) 5 and 7 over 8, (C) 7 over 8, (D) 5 and 87 over 105
Answer: B
Solve the equation 124 = m + 34.
(A) 158, (B) 90, (C) 88, (D) 4,216
Answer: B
Zelma buys p pounds of bananas for 40 cents per pound. She pays the clerk with a twenty-dollar bill. The clerk subtracts the total cost of the bananas from the twenty-dollar bill to determine the amount of change to give Zelma. Which expression represents the amount of change Zelma should receive?
(A) p - 20, (B) 20 - 40p, (C) 20 - 0.40p, (D) 0.40p - 20
Answer: C
Please answer the following question with just the correct option (A, B, C, or D) without any explanation or additional text.
If A is a subset of the real line R and A contains each rational number, which of the following must be true?
(A) 'If A is open, then A = R.', (B) 'If A is closed, then A = R.', (C) 'If A is uncountable, then A = R.', (D) 'If A is uncountable, then A is open.'
Answer:","","","","","","","","","","","","true","2","","","","","","","","",""
"survey-html-form","36","409224","0.0-4.0-1.10","y746dya1xmdh555","59db7128e776fd00015ec895","67b62c430b9240ccd8986e70","67b631ad75880fd42ac94178","4","16082.800000011921","","","{""mcAnswer"":""B""}","","","If A is a subset of the real line R and A contains each rational number, which of the following must be true?","[""If A is open, then A = R."",""If A is closed, then A = R."",""If A is uncountable, then A = R."",""If A is uncountable, then A is open.""]","B","C","modiste","","B","285","algLinUCB_0.9","diff-topics","college_mathematics","The following are multiple choice questions about high_school_mathematics.
Colton and his dad bought a gallon of paint that cost $13. They also bought 2 brushes that cost $9 each. What was the total cost, not including tax, of the brushes and the paint they bought?
(A) $22, (B) $24, (C) $31, (D) $35
Answer: C
Solve for y. y – 2 + 3y = 10
(A) 2, (B) 3, (C) 4, (D) 5
Answer: B
Solve 3 over 2 * w = 66.
(A) 33, (B) 44, (C) 88, (D) 99
Answer: B
Write 5.875 as a mixed number or fraction in simplest form.
(A) 5 and 8 over 9, (B) 5 and 7 over 8, (C) 7 over 8, (D) 5 and 87 over 105
Answer: B
Solve the equation 124 = m + 34.
(A) 158, (B) 90, (C) 88, (D) 4,216
Answer: B
Zelma buys p pounds of bananas for 40 cents per pound. She pays the clerk with a twenty-dollar bill. The clerk subtracts the total cost of the bananas from the twenty-dollar bill to determine the amount of change to give Zelma. Which expression represents the amount of change Zelma should receive?
(A) p - 20, (B) 20 - 40p, (C) 20 - 0.40p, (D) 0.40p - 20
Answer: C
Please answer the following question with just the correct option (A, B, C, or D) without any explanation or additional text.
If A is a subset of the real line R and A contains each rational number, which of the following must be true?
(A) 'If A is open, then A = R.', (B) 'If A is closed, then A = R.', (C) 'If A is uncountable, then A = R.', (D) 'If A is uncountable, then A is open.'
Answer:","","","","","","","","","","","","","","","","","","","","","",""
"","","","","","","","","","","","","","","","","","","","","","","","","","","","B","","","","","","","","","","","","","","","","","","","","",""
"","","","","","","","","","","","","","","","","","","","","","","","","","","","","false","160","-1","B","true","true","defer","[]","false","0","true","2","{""elementary_mathematics"":[""40/50"",""34/53"",""4/6""],""high_school_mathematics"":[""27/50"",""25/53"",""3 / 5""],""college_mathematics"":[""22/50"",""29/54"",""2 / 5""]}","{""elementary_mathematics"":false,""college_mathematics"":false,""high_school_mathematics"":false}","You should outsource this problem to the AI agent","false","null","true","null","null",""
"image-keyboard-response","37","410729","0.0-4.0-2.10","y746dya1xmdh555","59db7128e776fd00015ec895","67b62c430b9240ccd8986e70","67b631ad75880fd42ac94178","4","null","","","null","","","If A is a subset of the real line R and A contains each rational number, which of the following must be true?","[""If A is open, then A = R."",""If A is closed, then A = R."",""If A is uncountable, then A = R."",""If A is uncountable, then A is open.""]","B","C","modiste","","B","285","algLinUCB_0.9","diff-topics","college_mathematics","The following are multiple choice questions about high_school_mathematics.
Colton and his dad bought a gallon of paint that cost $13. They also bought 2 brushes that cost $9 each. What was the total cost, not including tax, of the brushes and the paint they bought?
(A) $22, (B) $24, (C) $31, (D) $35
Answer: C
Solve for y. y – 2 + 3y = 10
(A) 2, (B) 3, (C) 4, (D) 5
Answer: B
Solve 3 over 2 * w = 66.
(A) 33, (B) 44, (C) 88, (D) 99
Answer: B
Write 5.875 as a mixed number or fraction in simplest form.
(A) 5 and 8 over 9, (B) 5 and 7 over 8, (C) 7 over 8, (D) 5 and 87 over 105
Answer: B
Solve the equation 124 = m + 34.
(A) 158, (B) 90, (C) 88, (D) 4,216
Answer: B
Zelma buys p pounds of bananas for 40 cents per pound. She pays the clerk with a twenty-dollar bill. The clerk subtracts the total cost of the bananas from the twenty-dollar bill to determine the amount of change to give Zelma. Which expression represents the amount of change Zelma should receive?
(A) p - 20, (B) 20 - 40p, (C) 20 - 0.40p, (D) 0.40p - 20
Answer: C
Please answer the following question with just the correct option (A, B, C, or D) without any explanation or additional text.
If A is a subset of the real line R and A contains each rational number, which of the following must be true?
(A) 'If A is open, then A = R.', (B) 'If A is closed, then A = R.', (C) 'If A is uncountable, then A = R.', (D) 'If A is uncountable, then A is open.'
Answer:","","","","","","","","","","","","","","","","","","","","","","feedback_imgs/Correct.png"
"call-function","38","410729","0.0-4.0-0.11","y746dya1xmdh555","59db7128e776fd00015ec895","67b62c430b9240ccd8986e70","67b631ad75880fd42ac94178","4","","","","","","defer","Let f(x, y) = x^3 + y^3 + 3xy for all real x and y. Then there exist distinct points P and Q such that f has a","[""local maximum at P and at Q"",""saddle point at P and at Q"",""local maximum at P and a saddle point at Q"",""local minimum at P and a saddle point at Q""]","C","B","modiste","","C","284","algLinUCB_0.9","diff-topics","college_mathematics","The following are multiple choice questions about high_school_mathematics.
Colton and his dad bought a gallon of paint that cost $13. They also bought 2 brushes that cost $9 each. What was the total cost, not including tax, of the brushes and the paint they bought?
(A) $22, (B) $24, (C) $31, (D) $35
Answer: C
Solve for y. y – 2 + 3y = 10
(A) 2, (B) 3, (C) 4, (D) 5
Answer: B
Solve 3 over 2 * w = 66.
(A) 33, (B) 44, (C) 88, (D) 99
Answer: B
Write 5.875 as a mixed number or fraction in simplest form.
(A) 5 and 8 over 9, (B) 5 and 7 over 8, (C) 7 over 8, (D) 5 and 87 over 105
Answer: B
Solve the equation 124 = m + 34.
(A) 158, (B) 90, (C) 88, (D) 4,216
Answer: B
Zelma buys p pounds of bananas for 40 cents per pound. She pays the clerk with a twenty-dollar bill. The clerk subtracts the total cost of the bananas from the twenty-dollar bill to determine the amount of change to give Zelma. Which expression represents the amount of change Zelma should receive?
(A) p - 20, (B) 20 - 40p, (C) 20 - 0.40p, (D) 0.40p - 20
Answer: C
Please answer the following question with just the correct option (A, B, C, or D) without any explanation or additional text.
Let f(x, y) = x^3 + y^3 + 3xy for all real x and y. Then there exist distinct points P and Q such that f has a
(A) 'local maximum at P and at Q', (B) 'saddle point at P and at Q', (C) 'local maximum at P and a saddle point at Q', (D) 'local minimum at P and a saddle point at Q'
Answer:","","","","","","","","","","","","true","2","","","","","","","","",""
"survey-html-form","39","428918","0.0-4.0-1.11","y746dya1xmdh555","59db7128e776fd00015ec895","67b62c430b9240ccd8986e70","67b631ad75880fd42ac94178","4","18188.600000023842","","","{""mcAnswer"":""C""}","","","Let f(x, y) = x^3 + y^3 + 3xy for all real x and y. Then there exist distinct points P and Q such that f has a","[""local maximum at P and at Q"",""saddle point at P and at Q"",""local maximum at P and a saddle point at Q"",""local minimum at P and a saddle point at Q""]","C","B","modiste","","C","284","algLinUCB_0.9","diff-topics","college_mathematics","The following are multiple choice questions about high_school_mathematics.
Colton and his dad bought a gallon of paint that cost $13. They also bought 2 brushes that cost $9 each. What was the total cost, not including tax, of the brushes and the paint they bought?
(A) $22, (B) $24, (C) $31, (D) $35
Answer: C
Solve for y. y – 2 + 3y = 10
(A) 2, (B) 3, (C) 4, (D) 5
Answer: B
Solve 3 over 2 * w = 66.
(A) 33, (B) 44, (C) 88, (D) 99
Answer: B
Write 5.875 as a mixed number or fraction in simplest form.
(A) 5 and 8 over 9, (B) 5 and 7 over 8, (C) 7 over 8, (D) 5 and 87 over 105
Answer: B
Solve the equation 124 = m + 34.
(A) 158, (B) 90, (C) 88, (D) 4,216
Answer: B
Zelma buys p pounds of bananas for 40 cents per pound. She pays the clerk with a twenty-dollar bill. The clerk subtracts the total cost of the bananas from the twenty-dollar bill to determine the amount of change to give Zelma. Which expression represents the amount of change Zelma should receive?
(A) p - 20, (B) 20 - 40p, (C) 20 - 0.40p, (D) 0.40p - 20
Answer: C
Please answer the following question with just the correct option (A, B, C, or D) without any explanation or additional text.
Let f(x, y) = x^3 + y^3 + 3xy for all real x and y. Then there exist distinct points P and Q such that f has a
(A) 'local maximum at P and at Q', (B) 'saddle point at P and at Q', (C) 'local maximum at P and a saddle point at Q', (D) 'local minimum at P and a saddle point at Q'
Answer:","","","","","","","","","","","","","","","","","","","","","",""
"","","","","","","","","","","","","","","","","","","","","","","","","","","","C","","","","","","","","","","","","","","","","","","","","",""
"","","","","","","","","","","","","","","","","","","","","","","","","","","","","false","167","-1","C","true","true","defer","[]","false","0","true","2","{""elementary_mathematics"":[""40/50"",""34/53"",""4/6""],""high_school_mathematics"":[""27/50"",""25/53"",""3 / 5""],""college_mathematics"":[""22/50"",""30/55"",""2 / 5""]}","{""elementary_mathematics"":false,""college_mathematics"":false,""high_school_mathematics"":false}","You should outsource this problem to the AI agent","false","null","true","null","null",""
"image-keyboard-response","40","430420","0.0-4.0-2.11","y746dya1xmdh555","59db7128e776fd00015ec895","67b62c430b9240ccd8986e70","67b631ad75880fd42ac94178","4","null","","","null","","","Let f(x, y) = x^3 + y^3 + 3xy for all real x and y. Then there exist distinct points P and Q such that f has a","[""local maximum at P and at Q"",""saddle point at P and at Q"",""local maximum at P and a saddle point at Q"",""local minimum at P and a saddle point at Q""]","C","B","modiste","","C","284","algLinUCB_0.9","diff-topics","college_mathematics","The following are multiple choice questions about high_school_mathematics.
Colton and his dad bought a gallon of paint that cost $13. They also bought 2 brushes that cost $9 each. What was the total cost, not including tax, of the brushes and the paint they bought?
(A) $22, (B) $24, (C) $31, (D) $35
Answer: C
Solve for y. y – 2 + 3y = 10
(A) 2, (B) 3, (C) 4, (D) 5
Answer: B
Solve 3 over 2 * w = 66.
(A) 33, (B) 44, (C) 88, (D) 99
Answer: B
Write 5.875 as a mixed number or fraction in simplest form.
(A) 5 and 8 over 9, (B) 5 and 7 over 8, (C) 7 over 8, (D) 5 and 87 over 105
Answer: B
Solve the equation 124 = m + 34.
(A) 158, (B) 90, (C) 88, (D) 4,216
Answer: B
Zelma buys p pounds of bananas for 40 cents per pound. She pays the clerk with a twenty-dollar bill. The clerk subtracts the total cost of the bananas from the twenty-dollar bill to determine the amount of change to give Zelma. Which expression represents the amount of change Zelma should receive?
(A) p - 20, (B) 20 - 40p, (C) 20 - 0.40p, (D) 0.40p - 20
Answer: C
Please answer the following question with just the correct option (A, B, C, or D) without any explanation or additional text.
Let f(x, y) = x^3 + y^3 + 3xy for all real x and y. Then there exist distinct points P and Q such that f has a
(A) 'local maximum at P and at Q', (B) 'saddle point at P and at Q', (C) 'local maximum at P and a saddle point at Q', (D) 'local minimum at P and a saddle point at Q'
Answer:","","","","","","","","","","","","","","","","","","","","","","feedback_imgs/Correct.png"
"call-function","41","430421","0.0-4.0-0.12","y746dya1xmdh555","59db7128e776fd00015ec895","67b62c430b9240ccd8986e70","67b631ad75880fd42ac94178","4","","","","","","defer","What is the greatest common factor of 252 and 96?","[""6"",""24"",""5"",""12""]","B","D","modiste","","D","248","algLinUCB_0.9","diff-topics","high_school_mathematics","The following are multiple choice questions about high_school_mathematics.
Colton and his dad bought a gallon of paint that cost $13. They also bought 2 brushes that cost $9 each. What was the total cost, not including tax, of the brushes and the paint they bought?
(A) $22, (B) $24, (C) $31, (D) $35
Answer: C
Solve for y. y – 2 + 3y = 10
(A) 2, (B) 3, (C) 4, (D) 5
Answer: B
Solve 3 over 2 * w = 66.
(A) 33, (B) 44, (C) 88, (D) 99
Answer: B
Write 5.875 as a mixed number or fraction in simplest form.
(A) 5 and 8 over 9, (B) 5 and 7 over 8, (C) 7 over 8, (D) 5 and 87 over 105
Answer: B
Solve the equation 124 = m + 34.
(A) 158, (B) 90, (C) 88, (D) 4,216
Answer: B
Zelma buys p pounds of bananas for 40 cents per pound. She pays the clerk with a twenty-dollar bill. The clerk subtracts the total cost of the bananas from the twenty-dollar bill to determine the amount of change to give Zelma. Which expression represents the amount of change Zelma should receive?
(A) p - 20, (B) 20 - 40p, (C) 20 - 0.40p, (D) 0.40p - 20
Answer: C
Please answer the following question with just the correct option (A, B, C, or D) without any explanation or additional text.
What is the greatest common factor of 252 and 96?
(A) '6', (B) '24', (C) '5', (D) '12'
Answer:","","","","","","","","","","","","","","","","","","","","","",""
"survey-html-form","42","459540","0.0-4.0-1.12","y746dya1xmdh555","59db7128e776fd00015ec895","67b62c430b9240ccd8986e70","67b631ad75880fd42ac94178","4","29118.90000000596","","","{""mcAnswer"":""B""}","","","What is the greatest common factor of 252 and 96?","[""6"",""24"",""5"",""12""]","B","D","modiste","","D","248","algLinUCB_0.9","diff-topics","high_school_mathematics","The following are multiple choice questions about high_school_mathematics.
Colton and his dad bought a gallon of paint that cost $13. They also bought 2 brushes that cost $9 each. What was the total cost, not including tax, of the brushes and the paint they bought?
(A) $22, (B) $24, (C) $31, (D) $35
Answer: C
Solve for y. y – 2 + 3y = 10
(A) 2, (B) 3, (C) 4, (D) 5
Answer: B
Solve 3 over 2 * w = 66.
(A) 33, (B) 44, (C) 88, (D) 99
Answer: B
Write 5.875 as a mixed number or fraction in simplest form.
(A) 5 and 8 over 9, (B) 5 and 7 over 8, (C) 7 over 8, (D) 5 and 87 over 105
Answer: B
Solve the equation 124 = m + 34.
(A) 158, (B) 90, (C) 88, (D) 4,216
Answer: B
Zelma buys p pounds of bananas for 40 cents per pound. She pays the clerk with a twenty-dollar bill. The clerk subtracts the total cost of the bananas from the twenty-dollar bill to determine the amount of change to give Zelma. Which expression represents the amount of change Zelma should receive?
(A) p - 20, (B) 20 - 40p, (C) 20 - 0.40p, (D) 0.40p - 20
Answer: C
Please answer the following question with just the correct option (A, B, C, or D) without any explanation or additional text.
What is the greatest common factor of 252 and 96?
(A) '6', (B) '24', (C) '5', (D) '12'
Answer:","","","","","","","","","","","","","","","","","","","","","",""
"","","","","","","","","","","","","","","","","","","","","","","","","","","","B","","","","","","","","","","","","","","","","","","","","",""
"","","","","","","","","","","","","","","","","","","","","","","","","","","","","false","167","-1","B","false","false","defer","[]","false","0","false","0","{""elementary_mathematics"":[""40/50"",""34/53"",""4/6""],""high_school_mathematics"":[""27/50"",""25/53"",""3/6""],""college_mathematics"":[""22/50"",""30/55"",""2 / 5""]}","{""elementary_mathematics"":false,""college_mathematics"":false,""high_school_mathematics"":true}","You should attempt this problem by yourself","null","null","null","null","true",""
"image-keyboard-response","43","461042","0.0-4.0-2.12","y746dya1xmdh555","59db7128e776fd00015ec895","67b62c430b9240ccd8986e70","67b631ad75880fd42ac94178","4","null","","","null","","","What is the greatest common factor of 252 and 96?","[""6"",""24"",""5"",""12""]","B","D","modiste","","D","248","algLinUCB_0.9","diff-topics","high_school_mathematics","The following are multiple choice questions about high_school_mathematics.
Colton and his dad bought a gallon of paint that cost $13. They also bought 2 brushes that cost $9 each. What was the total cost, not including tax, of the brushes and the paint they bought?
(A) $22, (B) $24, (C) $31, (D) $35
Answer: C
Solve for y. y – 2 + 3y = 10
(A) 2, (B) 3, (C) 4, (D) 5
Answer: B
Solve 3 over 2 * w = 66.
(A) 33, (B) 44, (C) 88, (D) 99
Answer: B
Write 5.875 as a mixed number or fraction in simplest form.
(A) 5 and 8 over 9, (B) 5 and 7 over 8, (C) 7 over 8, (D) 5 and 87 over 105
Answer: B
Solve the equation 124 = m + 34.
(A) 158, (B) 90, (C) 88, (D) 4,216
Answer: B
Zelma buys p pounds of bananas for 40 cents per pound. She pays the clerk with a twenty-dollar bill. The clerk subtracts the total cost of the bananas from the twenty-dollar bill to determine the amount of change to give Zelma. Which expression represents the amount of change Zelma should receive?
(A) p - 20, (B) 20 - 40p, (C) 20 - 0.40p, (D) 0.40p - 20
Answer: C
Please answer the following question with just the correct option (A, B, C, or D) without any explanation or additional text.
What is the greatest common factor of 252 and 96?
(A) '6', (B) '24', (C) '5', (D) '12'
Answer:","","","","","","","","","","","","","","","","","","","","","","feedback_imgs/Incorrect.png"
"call-function","44","461043","0.0-4.0-0.13","y746dya1xmdh555","59db7128e776fd00015ec895","67b62c430b9240ccd8986e70","67b631ad75880fd42ac94178","4","","","","","","defer","If A is the 2 by 2 matrix whose (i, j) entry is equal to i + j, and B is the 3 by 3 matrix whose (i, j) entry is equal to i + j, find the value of the sum detA + detB.","[""-2"",""-1"",""0"",""2""]","C","B","modiste","","B","290","algLinUCB_0.9","diff-topics","college_mathematics","The following are multiple choice questions about high_school_mathematics.
Colton and his dad bought a gallon of paint that cost $13. They also bought 2 brushes that cost $9 each. What was the total cost, not including tax, of the brushes and the paint they bought?
(A) $22, (B) $24, (C) $31, (D) $35
Answer: C
Solve for y. y – 2 + 3y = 10
(A) 2, (B) 3, (C) 4, (D) 5
Answer: B
Solve 3 over 2 * w = 66.
(A) 33, (B) 44, (C) 88, (D) 99
Answer: B
Write 5.875 as a mixed number or fraction in simplest form.
(A) 5 and 8 over 9, (B) 5 and 7 over 8, (C) 7 over 8, (D) 5 and 87 over 105
Answer: B
Solve the equation 124 = m + 34.
(A) 158, (B) 90, (C) 88, (D) 4,216
Answer: B
Zelma buys p pounds of bananas for 40 cents per pound. She pays the clerk with a twenty-dollar bill. The clerk subtracts the total cost of the bananas from the twenty-dollar bill to determine the amount of change to give Zelma. Which expression represents the amount of change Zelma should receive?
(A) p - 20, (B) 20 - 40p, (C) 20 - 0.40p, (D) 0.40p - 20
Answer: C
Please answer the following question with just the correct option (A, B, C, or D) without any explanation or additional text.
If A is the 2 by 2 matrix whose (i, j) entry is equal to i + j, and B is the 3 by 3 matrix whose (i, j) entry is equal to i + j, find the value of the sum detA + detB.
(A) '-2', (B) '-1', (C) '0', (D) '2'
Answer:","","","","","","","","","","","","true","2","","","","","","","","",""
"survey-html-form","45","477427","0.0-4.0-1.13","y746dya1xmdh555","59db7128e776fd00015ec895","67b62c430b9240ccd8986e70","67b631ad75880fd42ac94178","4","16384","","","{""mcAnswer"":""C""}","","","If A is the 2 by 2 matrix whose (i, j) entry is equal to i + j, and B is the 3 by 3 matrix whose (i, j) entry is equal to i + j, find the value of the sum detA + detB.","[""-2"",""-1"",""0"",""2""]","C","B","modiste","","B","290","algLinUCB_0.9","diff-topics","college_mathematics","The following are multiple choice questions about high_school_mathematics.
Colton and his dad bought a gallon of paint that cost $13. They also bought 2 brushes that cost $9 each. What was the total cost, not including tax, of the brushes and the paint they bought?
(A) $22, (B) $24, (C) $31, (D) $35
Answer: C
Solve for y. y – 2 + 3y = 10
(A) 2, (B) 3, (C) 4, (D) 5
Answer: B
Solve 3 over 2 * w = 66.
(A) 33, (B) 44, (C) 88, (D) 99
Answer: B
Write 5.875 as a mixed number or fraction in simplest form.
(A) 5 and 8 over 9, (B) 5 and 7 over 8, (C) 7 over 8, (D) 5 and 87 over 105
Answer: B
Solve the equation 124 = m + 34.
(A) 158, (B) 90, (C) 88, (D) 4,216
Answer: B
Zelma buys p pounds of bananas for 40 cents per pound. She pays the clerk with a twenty-dollar bill. The clerk subtracts the total cost of the bananas from the twenty-dollar bill to determine the amount of change to give Zelma. Which expression represents the amount of change Zelma should receive?
(A) p - 20, (B) 20 - 40p, (C) 20 - 0.40p, (D) 0.40p - 20
Answer: C
Please answer the following question with just the correct option (A, B, C, or D) without any explanation or additional text.
If A is the 2 by 2 matrix whose (i, j) entry is equal to i + j, and B is the 3 by 3 matrix whose (i, j) entry is equal to i + j, find the value of the sum detA + detB.
(A) '-2', (B) '-1', (C) '0', (D) '2'
Answer:","","","","","","","","","","","","","","","","","","","","","",""
"","","","","","","","","","","","","","","","","","","","","","","","","","","","C","","","","","","","","","","","","","","","","","","","","",""
"","","","","","","","","","","","","","","","","","","","","","","","","","","","","false","164","-1","C","false","false","defer","[]","false","0","true","2","{""elementary_mathematics"":[""40/50"",""34/53"",""4/6""],""high_school_mathematics"":[""27/50"",""25/53"",""3/6""],""college_mathematics"":[""22/50"",""30/56"",""2 / 5""]}","{""elementary_mathematics"":false,""college_mathematics"":false,""high_school_mathematics"":true}","You should outsource this problem to the AI agent","false","null","true","null","null",""
"image-keyboard-response","46","478928","0.0-4.0-2.13","y746dya1xmdh555","59db7128e776fd00015ec895","67b62c430b9240ccd8986e70","67b631ad75880fd42ac94178","4","null","","","null","","","If A is the 2 by 2 matrix whose (i, j) entry is equal to i + j, and B is the 3 by 3 matrix whose (i, j) entry is equal to i + j, find the value of the sum detA + detB.","[""-2"",""-1"",""0"",""2""]","C","B","modiste","","B","290","algLinUCB_0.9","diff-topics","college_mathematics","The following are multiple choice questions about high_school_mathematics.
Colton and his dad bought a gallon of paint that cost $13. They also bought 2 brushes that cost $9 each. What was the total cost, not including tax, of the brushes and the paint they bought?
(A) $22, (B) $24, (C) $31, (D) $35
Answer: C
Solve for y. y – 2 + 3y = 10
(A) 2, (B) 3, (C) 4, (D) 5
Answer: B
Solve 3 over 2 * w = 66.
(A) 33, (B) 44, (C) 88, (D) 99
Answer: B
Write 5.875 as a mixed number or fraction in simplest form.
(A) 5 and 8 over 9, (B) 5 and 7 over 8, (C) 7 over 8, (D) 5 and 87 over 105
Answer: B
Solve the equation 124 = m + 34.
(A) 158, (B) 90, (C) 88, (D) 4,216
Answer: B
Zelma buys p pounds of bananas for 40 cents per pound. She pays the clerk with a twenty-dollar bill. The clerk subtracts the total cost of the bananas from the twenty-dollar bill to determine the amount of change to give Zelma. Which expression represents the amount of change Zelma should receive?
(A) p - 20, (B) 20 - 40p, (C) 20 - 0.40p, (D) 0.40p - 20
Answer: C
Please answer the following question with just the correct option (A, B, C, or D) without any explanation or additional text.
If A is the 2 by 2 matrix whose (i, j) entry is equal to i + j, and B is the 3 by 3 matrix whose (i, j) entry is equal to i + j, find the value of the sum detA + detB.
(A) '-2', (B) '-1', (C) '0', (D) '2'
Answer:","","","","","","","","","","","","","","","","","","","","","","feedback_imgs/Incorrect.png"
"call-function","47","478928","0.0-4.0-0.14","y746dya1xmdh555","59db7128e776fd00015ec895","67b62c430b9240ccd8986e70","67b631ad75880fd42ac94178","4","","","","","","defer","Find the exact answer: 110 + 70","[""18"",""81"",""180"",""810""]","C","C","modiste","","C","270","algLinUCB_0.9","diff-topics","elementary_mathematics","The following are multiple choice questions about high_school_mathematics.
Colton and his dad bought a gallon of paint that cost $13. They also bought 2 brushes that cost $9 each. What was the total cost, not including tax, of the brushes and the paint they bought?
(A) $22, (B) $24, (C) $31, (D) $35
Answer: C
Solve for y. y – 2 + 3y = 10
(A) 2, (B) 3, (C) 4, (D) 5
Answer: B
Solve 3 over 2 * w = 66.
(A) 33, (B) 44, (C) 88, (D) 99
Answer: B
Write 5.875 as a mixed number or fraction in simplest form.
(A) 5 and 8 over 9, (B) 5 and 7 over 8, (C) 7 over 8, (D) 5 and 87 over 105
Answer: B
Solve the equation 124 = m + 34.
(A) 158, (B) 90, (C) 88, (D) 4,216
Answer: B
Zelma buys p pounds of bananas for 40 cents per pound. She pays the clerk with a twenty-dollar bill. The clerk subtracts the total cost of the bananas from the twenty-dollar bill to determine the amount of change to give Zelma. Which expression represents the amount of change Zelma should receive?
(A) p - 20, (B) 20 - 40p, (C) 20 - 0.40p, (D) 0.40p - 20
Answer: C
Please answer the following question with just the correct option (A, B, C, or D) without any explanation or additional text.
Find the exact answer: 110 + 70
(A) '18', (B) '81', (C) '180', (D) '810'
Answer:","","","","","","","","","","","","","","","","","","","","","",""
"survey-html-form","48","489538","0.0-4.0-1.14","y746dya1xmdh555","59db7128e776fd00015ec895","67b62c430b9240ccd8986e70","67b631ad75880fd42ac94178","4","10609.40000000596","","","{""mcAnswer"":""C""}","","","Find the exact answer: 110 + 70","[""18"",""81"",""180"",""810""]","C","C","modiste","","C","270","algLinUCB_0.9","diff-topics","elementary_mathematics","The following are multiple choice questions about high_school_mathematics.
Colton and his dad bought a gallon of paint that cost $13. They also bought 2 brushes that cost $9 each. What was the total cost, not including tax, of the brushes and the paint they bought?
(A) $22, (B) $24, (C) $31, (D) $35
Answer: C
Solve for y. y – 2 + 3y = 10
(A) 2, (B) 3, (C) 4, (D) 5
Answer: B
Solve 3 over 2 * w = 66.
(A) 33, (B) 44, (C) 88, (D) 99
Answer: B
Write 5.875 as a mixed number or fraction in simplest form.
(A) 5 and 8 over 9, (B) 5 and 7 over 8, (C) 7 over 8, (D) 5 and 87 over 105
Answer: B
Solve the equation 124 = m + 34.
(A) 158, (B) 90, (C) 88, (D) 4,216
Answer: B
Zelma buys p pounds of bananas for 40 cents per pound. She pays the clerk with a twenty-dollar bill. The clerk subtracts the total cost of the bananas from the twenty-dollar bill to determine the amount of change to give Zelma. Which expression represents the amount of change Zelma should receive?
(A) p - 20, (B) 20 - 40p, (C) 20 - 0.40p, (D) 0.40p - 20
Answer: C
Please answer the following question with just the correct option (A, B, C, or D) without any explanation or additional text.
Find the exact answer: 110 + 70
(A) '18', (B) '81', (C) '180', (D) '810'
Answer:","","","","","","","","","","","","","","","","","","","","","",""
"","","","","","","","","","","","","","","","","","","","","","","","","","","","C","","","","","","","","","","","","","","","","","","","","",""
"","","","","","","","","","","","","","","","","","","","","","","","","","","","","false","174","-1","C","true","true","defer","[]","false","0","false","0","{""elementary_mathematics"":[""40/50"",""34/53"",""5/7""],""high_school_mathematics"":[""27/50"",""25/53"",""3/6""],""college_mathematics"":[""22/50"",""30/56"",""2 / 5""]}","{""elementary_mathematics"":false,""college_mathematics"":false,""high_school_mathematics"":true}","You should outsource this problem to a human agent","null","null","null","false","null",""
"image-keyboard-response","49","491040","0.0-4.0-2.14","y746dya1xmdh555","59db7128e776fd00015ec895","67b62c430b9240ccd8986e70","67b631ad75880fd42ac94178","4","null","","","null","","","Find the exact answer: 110 + 70","[""18"",""81"",""180"",""810""]","C","C","modiste","","C","270","algLinUCB_0.9","diff-topics","elementary_mathematics","The following are multiple choice questions about high_school_mathematics.
Colton and his dad bought a gallon of paint that cost $13. They also bought 2 brushes that cost $9 each. What was the total cost, not including tax, of the brushes and the paint they bought?
(A) $22, (B) $24, (C) $31, (D) $35
Answer: C
Solve for y. y – 2 + 3y = 10
(A) 2, (B) 3, (C) 4, (D) 5
Answer: B
Solve 3 over 2 * w = 66.
(A) 33, (B) 44, (C) 88, (D) 99
Answer: B
Write 5.875 as a mixed number or fraction in simplest form.
(A) 5 and 8 over 9, (B) 5 and 7 over 8, (C) 7 over 8, (D) 5 and 87 over 105
Answer: B
Solve the equation 124 = m + 34.
(A) 158, (B) 90, (C) 88, (D) 4,216
Answer: B
Zelma buys p pounds of bananas for 40 cents per pound. She pays the clerk with a twenty-dollar bill. The clerk subtracts the total cost of the bananas from the twenty-dollar bill to determine the amount of change to give Zelma. Which expression represents the amount of change Zelma should receive?
(A) p - 20, (B) 20 - 40p, (C) 20 - 0.40p, (D) 0.40p - 20
Answer: C
Please answer the following question with just the correct option (A, B, C, or D) without any explanation or additional text.
Find the exact answer: 110 + 70
(A) '18', (B) '81', (C) '180', (D) '810'
Answer:","","","","","","","","","","","","","","","","","","","","","","feedback_imgs/Correct.png"
"call-function","50","491040","0.0-4.0-0.15","y746dya1xmdh555","59db7128e776fd00015ec895","67b62c430b9240ccd8986e70","67b631ad75880fd42ac94178","4","","","","","","defer","For which of the following rings is it possible for the product of two nonzero elements to be zero?","[""The ring of complex numbers"",""The ring of integers modulo 11"",""The ring of continuous real-valued functions on [0, 1]"",""The ring {a + b * sqrt(2) : a and b are rational numbers}""]","D","C","modiste","","C","288","algLinUCB_0.9","diff-topics","college_mathematics","The following are multiple choice questions about high_school_mathematics.
Colton and his dad bought a gallon of paint that cost $13. They also bought 2 brushes that cost $9 each. What was the total cost, not including tax, of the brushes and the paint they bought?
(A) $22, (B) $24, (C) $31, (D) $35
Answer: C
Solve for y. y – 2 + 3y = 10
(A) 2, (B) 3, (C) 4, (D) 5
Answer: B
Solve 3 over 2 * w = 66.
(A) 33, (B) 44, (C) 88, (D) 99
Answer: B
Write 5.875 as a mixed number or fraction in simplest form.
(A) 5 and 8 over 9, (B) 5 and 7 over 8, (C) 7 over 8, (D) 5 and 87 over 105
Answer: B
Solve the equation 124 = m + 34.
(A) 158, (B) 90, (C) 88, (D) 4,216
Answer: B
Zelma buys p pounds of bananas for 40 cents per pound. She pays the clerk with a twenty-dollar bill. The clerk subtracts the total cost of the bananas from the twenty-dollar bill to determine the amount of change to give Zelma. Which expression represents the amount of change Zelma should receive?
(A) p - 20, (B) 20 - 40p, (C) 20 - 0.40p, (D) 0.40p - 20
Answer: C
