"trial_type","trial_index","time_elapsed","internal_node_id","subject","prolific_id","study_id","session_id","condition","rt","url","view_history","response","question_order","value","question","options","llm_answer","population_answer","task","subj_id","label","example_id","variant","main_variant","topic","prompt","0","btn_clicked","score","timeToClick","modelPred","humanCorrect","modelCorrect","interfaceType","modelPredDist","human_support_used","human_support_clicks","llm_support_used","llm_support_clicks","recommendation_lists","incorrect_answers_by_category","recommendation","LLM_outsourcing_overridden","human_outsourcing_overridden","ai_orch_agreement","human_orch_agreement","self_orch_agreement","stimulus"
"pavlovia","0","978","0.0-0.0","w8dx01bw9jlapf7","673204494167687dfb6a5747","67b62c430b9240ccd8986e70","67b6317b1d214b09fca7cc5f","1","","","","","","","","","","","","","","","","","","","","","","","","","","","","","","","","","","","","","","","",""
"external-html","1","6204","0.0-1.0","w8dx01bw9jlapf7","673204494167687dfb6a5747","67b62c430b9240ccd8986e70","67b6317b1d214b09fca7cc5f","1","5109.5999999940395","consent.html","","","","","","","","","","","","","","","","","","","","","","","","","","","","","","","","","","","","","",""
"instructions","2","287903","0.0-2.0-0.0","w8dx01bw9jlapf7","673204494167687dfb6a5747","67b62c430b9240ccd8986e70","67b6317b1d214b09fca7cc5f","1","281699.09999999404","","[{""page_index"":0,""viewing_time"":4266.299999982119},{""page_index"":1,""viewing_time"":12644.300000011921},{""page_index"":2,""viewing_time"":8480.299999982119},{""page_index"":3,""viewing_time"":15521.100000023842},{""page_index"":4,""viewing_time"":217674.39999997616},{""page_index"":5,""viewing_time"":12077.300000011921},{""page_index"":6,""viewing_time"":1525.0999999940395},{""page_index"":7,""viewing_time"":9510.09999999404}]","","","","","","","","","","","","","","","","","","","","","","","","","","","","","","","","","","","","",""
"survey-multi-choice","3","299688","0.0-2.0-1.0","w8dx01bw9jlapf7","673204494167687dfb6a5747","67b62c430b9240ccd8986e70","67b6317b1d214b09fca7cc5f","1","11783.800000011921","","","{""Q0"":""The answer to a mutliple choice question."",""Q1"":""Clicking on a radio button.""}","[0,1]","","","","","","","","","","","","","","","","","","","","","","","","","","","","","","","","","","",""
"instructions","4","312477","0.0-3.0","w8dx01bw9jlapf7","673204494167687dfb6a5747","67b62c430b9240ccd8986e70","67b6317b1d214b09fca7cc5f","1","12789.09999999404","","[{""page_index"":0,""viewing_time"":12789}]","","","","","","","","","","","","","","","","","","","","","","","","","","","","","","","","","","","","",""
"call-function","5","312478","0.0-4.0-0.0","w8dx01bw9jlapf7","673204494167687dfb6a5747","67b62c430b9240ccd8986e70","67b6317b1d214b09fca7cc5f","1","","","","","","defer","A tree is a connected graph with no cycles. How many nonisomorphic trees with 5 vertices exist?","[""1"",""2"",""3"",""4""]","C","C","modiste","","C","113","algLinUCB_0.9","diff-topics","college_mathematics","The following are multiple choice questions about high_school_mathematics.
Colton and his dad bought a gallon of paint that cost $13. They also bought 2 brushes that cost $9 each. What was the total cost, not including tax, of the brushes and the paint they bought?
(A) $22, (B) $24, (C) $31, (D) $35
Answer: C
Solve for y. y – 2 + 3y = 10
(A) 2, (B) 3, (C) 4, (D) 5
Answer: B
Solve 3 over 2 * w = 66.
(A) 33, (B) 44, (C) 88, (D) 99
Answer: B
Write 5.875 as a mixed number or fraction in simplest form.
(A) 5 and 8 over 9, (B) 5 and 7 over 8, (C) 7 over 8, (D) 5 and 87 over 105
Answer: B
Solve the equation 124 = m + 34.
(A) 158, (B) 90, (C) 88, (D) 4,216
Answer: B
Zelma buys p pounds of bananas for 40 cents per pound. She pays the clerk with a twenty-dollar bill. The clerk subtracts the total cost of the bananas from the twenty-dollar bill to determine the amount of change to give Zelma. Which expression represents the amount of change Zelma should receive?
(A) p - 20, (B) 20 - 40p, (C) 20 - 0.40p, (D) 0.40p - 20
Answer: C
Please answer the following question with just the correct option (A, B, C, or D) without any explanation or additional text.
A tree is a connected graph with no cycles. How many nonisomorphic trees with 5 vertices exist?
(A) '1', (B) '2', (C) '3', (D) '4'
Answer:","","","","","","","","","","","","","","","","","","","","","",""
"survey-html-form","6","377873","0.0-4.0-1.0","w8dx01bw9jlapf7","673204494167687dfb6a5747","67b62c430b9240ccd8986e70","67b6317b1d214b09fca7cc5f","1","65394.30000001192","","","{""mcAnswer"":""C""}","","","A tree is a connected graph with no cycles. How many nonisomorphic trees with 5 vertices exist?","[""1"",""2"",""3"",""4""]","C","C","modiste","","C","113","algLinUCB_0.9","diff-topics","college_mathematics","The following are multiple choice questions about high_school_mathematics.
Colton and his dad bought a gallon of paint that cost $13. They also bought 2 brushes that cost $9 each. What was the total cost, not including tax, of the brushes and the paint they bought?
(A) $22, (B) $24, (C) $31, (D) $35
Answer: C
Solve for y. y – 2 + 3y = 10
(A) 2, (B) 3, (C) 4, (D) 5
Answer: B
Solve 3 over 2 * w = 66.
(A) 33, (B) 44, (C) 88, (D) 99
Answer: B
Write 5.875 as a mixed number or fraction in simplest form.
(A) 5 and 8 over 9, (B) 5 and 7 over 8, (C) 7 over 8, (D) 5 and 87 over 105
Answer: B
Solve the equation 124 = m + 34.
(A) 158, (B) 90, (C) 88, (D) 4,216
Answer: B
Zelma buys p pounds of bananas for 40 cents per pound. She pays the clerk with a twenty-dollar bill. The clerk subtracts the total cost of the bananas from the twenty-dollar bill to determine the amount of change to give Zelma. Which expression represents the amount of change Zelma should receive?
(A) p - 20, (B) 20 - 40p, (C) 20 - 0.40p, (D) 0.40p - 20
Answer: C
Please answer the following question with just the correct option (A, B, C, or D) without any explanation or additional text.
A tree is a connected graph with no cycles. How many nonisomorphic trees with 5 vertices exist?
(A) '1', (B) '2', (C) '3', (D) '4'
Answer:","","","","","","","","","","","","","","","","","","","","","",""
"","","","","","","","","","","","","","","","","","","","","","","","","","","","C","","","","","","","","","","","","","","","","","","","","",""
"","","","","","","","","","","","","","","","","","","","","","","","","","","","","false","110","-1","C","true","true","defer","[]","false","0","false","0","{""elementary_mathematics"":[""40/50"",""31/50"",""4 / 5""],""high_school_mathematics"":[""27/50"",""22/50"",""3 / 5""],""college_mathematics"":[""22/50"",""26/50"",""3/6""]}","{""college_mathematics"":false}","You should outsource this problem to the AI agent","null","null","false","null","null",""
"image-keyboard-response","7","379388","0.0-4.0-2.0","w8dx01bw9jlapf7","673204494167687dfb6a5747","67b62c430b9240ccd8986e70","67b6317b1d214b09fca7cc5f","1","null","","","null","","","A tree is a connected graph with no cycles. How many nonisomorphic trees with 5 vertices exist?","[""1"",""2"",""3"",""4""]","C","C","modiste","","C","113","algLinUCB_0.9","diff-topics","college_mathematics","The following are multiple choice questions about high_school_mathematics.
Colton and his dad bought a gallon of paint that cost $13. They also bought 2 brushes that cost $9 each. What was the total cost, not including tax, of the brushes and the paint they bought?
(A) $22, (B) $24, (C) $31, (D) $35
Answer: C
Solve for y. y – 2 + 3y = 10
(A) 2, (B) 3, (C) 4, (D) 5
Answer: B
Solve 3 over 2 * w = 66.
(A) 33, (B) 44, (C) 88, (D) 99
Answer: B
Write 5.875 as a mixed number or fraction in simplest form.
(A) 5 and 8 over 9, (B) 5 and 7 over 8, (C) 7 over 8, (D) 5 and 87 over 105
Answer: B
Solve the equation 124 = m + 34.
(A) 158, (B) 90, (C) 88, (D) 4,216
Answer: B
Zelma buys p pounds of bananas for 40 cents per pound. She pays the clerk with a twenty-dollar bill. The clerk subtracts the total cost of the bananas from the twenty-dollar bill to determine the amount of change to give Zelma. Which expression represents the amount of change Zelma should receive?
(A) p - 20, (B) 20 - 40p, (C) 20 - 0.40p, (D) 0.40p - 20
Answer: C
Please answer the following question with just the correct option (A, B, C, or D) without any explanation or additional text.
A tree is a connected graph with no cycles. How many nonisomorphic trees with 5 vertices exist?
(A) '1', (B) '2', (C) '3', (D) '4'
Answer:","","","","","","","","","","","","","","","","","","","","","","feedback_imgs/Correct.png"
"call-function","8","379388","0.0-4.0-0.1","w8dx01bw9jlapf7","673204494167687dfb6a5747","67b62c430b9240ccd8986e70","67b6317b1d214b09fca7cc5f","1","","","","","","defer","A relative maximum value of the function y = (ln x)/x is","[""1"",""e"",""2/e"",""1/e""]","D","C","modiste","","D","74","algLinUCB_0.9","diff-topics","high_school_mathematics","The following are multiple choice questions about high_school_mathematics.
Colton and his dad bought a gallon of paint that cost $13. They also bought 2 brushes that cost $9 each. What was the total cost, not including tax, of the brushes and the paint they bought?
(A) $22, (B) $24, (C) $31, (D) $35
Answer: C
Solve for y. y – 2 + 3y = 10
(A) 2, (B) 3, (C) 4, (D) 5
Answer: B
Solve 3 over 2 * w = 66.
(A) 33, (B) 44, (C) 88, (D) 99
Answer: B
Write 5.875 as a mixed number or fraction in simplest form.
(A) 5 and 8 over 9, (B) 5 and 7 over 8, (C) 7 over 8, (D) 5 and 87 over 105
Answer: B
Solve the equation 124 = m + 34.
(A) 158, (B) 90, (C) 88, (D) 4,216
Answer: B
Zelma buys p pounds of bananas for 40 cents per pound. She pays the clerk with a twenty-dollar bill. The clerk subtracts the total cost of the bananas from the twenty-dollar bill to determine the amount of change to give Zelma. Which expression represents the amount of change Zelma should receive?
(A) p - 20, (B) 20 - 40p, (C) 20 - 0.40p, (D) 0.40p - 20
Answer: C
Please answer the following question with just the correct option (A, B, C, or D) without any explanation or additional text.
A relative maximum value of the function y = (ln x)/x is
(A) '1', (B) 'e', (C) '2/e', (D) '1/e'
Answer:","","","","","","","","","","","","","","","","","","","","","",""
"survey-html-form","9","598037","0.0-4.0-1.1","w8dx01bw9jlapf7","673204494167687dfb6a5747","67b62c430b9240ccd8986e70","67b6317b1d214b09fca7cc5f","1","218647.90000000596","","","{""mcAnswer"":""B""}","","","A relative maximum value of the function y = (ln x)/x is","[""1"",""e"",""2/e"",""1/e""]","D","C","modiste","","D","74","algLinUCB_0.9","diff-topics","high_school_mathematics","The following are multiple choice questions about high_school_mathematics.
Colton and his dad bought a gallon of paint that cost $13. They also bought 2 brushes that cost $9 each. What was the total cost, not including tax, of the brushes and the paint they bought?
(A) $22, (B) $24, (C) $31, (D) $35
Answer: C
Solve for y. y – 2 + 3y = 10
(A) 2, (B) 3, (C) 4, (D) 5
Answer: B
Solve 3 over 2 * w = 66.
(A) 33, (B) 44, (C) 88, (D) 99
Answer: B
Write 5.875 as a mixed number or fraction in simplest form.
(A) 5 and 8 over 9, (B) 5 and 7 over 8, (C) 7 over 8, (D) 5 and 87 over 105
Answer: B
Solve the equation 124 = m + 34.
(A) 158, (B) 90, (C) 88, (D) 4,216
Answer: B
Zelma buys p pounds of bananas for 40 cents per pound. She pays the clerk with a twenty-dollar bill. The clerk subtracts the total cost of the bananas from the twenty-dollar bill to determine the amount of change to give Zelma. Which expression represents the amount of change Zelma should receive?
(A) p - 20, (B) 20 - 40p, (C) 20 - 0.40p, (D) 0.40p - 20
Answer: C
Please answer the following question with just the correct option (A, B, C, or D) without any explanation or additional text.
A relative maximum value of the function y = (ln x)/x is
(A) '1', (B) 'e', (C) '2/e', (D) '1/e'
Answer:","","","","","","","","","","","","","","","","","","","","","",""
"","","","","","","","","","","","","","","","","","","","","","","","","","","","B","","","","","","","","","","","","","","","","","","","","",""
"","","","","","","","","","","","","","","","","","","","","","","","","","","","","false","110","-1","D","false","true","defer","[]","false","0","false","0","{""elementary_mathematics"":[""40/50"",""31/50"",""4 / 5""],""high_school_mathematics"":[""27/50"",""22/50"",""3/6""],""college_mathematics"":[""22/50"",""26/50"",""3/6""]}","{""college_mathematics"":false,""high_school_mathematics"":true}","You should attempt this problem by yourself","null","null","null","null","true",""
"image-keyboard-response","10","599539","0.0-4.0-2.1","w8dx01bw9jlapf7","673204494167687dfb6a5747","67b62c430b9240ccd8986e70","67b6317b1d214b09fca7cc5f","1","null","","","null","","","A relative maximum value of the function y = (ln x)/x is","[""1"",""e"",""2/e"",""1/e""]","D","C","modiste","","D","74","algLinUCB_0.9","diff-topics","high_school_mathematics","The following are multiple choice questions about high_school_mathematics.
Colton and his dad bought a gallon of paint that cost $13. They also bought 2 brushes that cost $9 each. What was the total cost, not including tax, of the brushes and the paint they bought?
(A) $22, (B) $24, (C) $31, (D) $35
Answer: C
Solve for y. y – 2 + 3y = 10
(A) 2, (B) 3, (C) 4, (D) 5
Answer: B
Solve 3 over 2 * w = 66.
(A) 33, (B) 44, (C) 88, (D) 99
Answer: B
Write 5.875 as a mixed number or fraction in simplest form.
(A) 5 and 8 over 9, (B) 5 and 7 over 8, (C) 7 over 8, (D) 5 and 87 over 105
Answer: B
Solve the equation 124 = m + 34.
(A) 158, (B) 90, (C) 88, (D) 4,216
Answer: B
Zelma buys p pounds of bananas for 40 cents per pound. She pays the clerk with a twenty-dollar bill. The clerk subtracts the total cost of the bananas from the twenty-dollar bill to determine the amount of change to give Zelma. Which expression represents the amount of change Zelma should receive?
(A) p - 20, (B) 20 - 40p, (C) 20 - 0.40p, (D) 0.40p - 20
Answer: C
Please answer the following question with just the correct option (A, B, C, or D) without any explanation or additional text.
A relative maximum value of the function y = (ln x)/x is
(A) '1', (B) 'e', (C) '2/e', (D) '1/e'
Answer:","","","","","","","","","","","","","","","","","","","","","","feedback_imgs/Incorrect.png"
"call-function","11","599539","0.0-4.0-0.2","w8dx01bw9jlapf7","673204494167687dfb6a5747","67b62c430b9240ccd8986e70","67b6317b1d214b09fca7cc5f","1","","","","","","defer","Statement 1 | Suppose {s_n} and {t_n} are sequences of complex numbers such that lim_n→∞ s_n = s and lim_n→∞ tn = t. lim_n→∞ s_nt_n = st. Statement 2 | There exists a bounded sequence of real numbers with no convergent subsequence.","[""True, True"",""True, False"",""False, True"",""False, False""]","B","A","modiste","","B","104","algLinUCB_0.9","diff-topics","college_mathematics","The following are multiple choice questions about high_school_mathematics.
Colton and his dad bought a gallon of paint that cost $13. They also bought 2 brushes that cost $9 each. What was the total cost, not including tax, of the brushes and the paint they bought?
(A) $22, (B) $24, (C) $31, (D) $35
Answer: C
Solve for y. y – 2 + 3y = 10
(A) 2, (B) 3, (C) 4, (D) 5
Answer: B
Solve 3 over 2 * w = 66.
(A) 33, (B) 44, (C) 88, (D) 99
Answer: B
Write 5.875 as a mixed number or fraction in simplest form.
(A) 5 and 8 over 9, (B) 5 and 7 over 8, (C) 7 over 8, (D) 5 and 87 over 105
Answer: B
Solve the equation 124 = m + 34.
(A) 158, (B) 90, (C) 88, (D) 4,216
Answer: B
Zelma buys p pounds of bananas for 40 cents per pound. She pays the clerk with a twenty-dollar bill. The clerk subtracts the total cost of the bananas from the twenty-dollar bill to determine the amount of change to give Zelma. Which expression represents the amount of change Zelma should receive?
(A) p - 20, (B) 20 - 40p, (C) 20 - 0.40p, (D) 0.40p - 20
Answer: C
Please answer the following question with just the correct option (A, B, C, or D) without any explanation or additional text.
Statement 1 | Suppose {s_n} and {t_n} are sequences of complex numbers such that lim_n→∞ s_n = s and lim_n→∞ tn = t. lim_n→∞ s_nt_n = st. Statement 2 | There exists a bounded sequence of real numbers with no convergent subsequence.
(A) 'True, True', (B) 'True, False', (C) 'False, True', (D) 'False, False'
Answer:","","","","","","","","","","","","true","2","","","","","","","","",""
"survey-html-form","12","630457","0.0-4.0-1.2","w8dx01bw9jlapf7","673204494167687dfb6a5747","67b62c430b9240ccd8986e70","67b6317b1d214b09fca7cc5f","1","30916.90000000596","","","{""mcAnswer"":""B""}","","","Statement 1 | Suppose {s_n} and {t_n} are sequences of complex numbers such that lim_n→∞ s_n = s and lim_n→∞ tn = t. lim_n→∞ s_nt_n = st. Statement 2 | There exists a bounded sequence of real numbers with no convergent subsequence.","[""True, True"",""True, False"",""False, True"",""False, False""]","B","A","modiste","","B","104","algLinUCB_0.9","diff-topics","college_mathematics","The following are multiple choice questions about high_school_mathematics.
Colton and his dad bought a gallon of paint that cost $13. They also bought 2 brushes that cost $9 each. What was the total cost, not including tax, of the brushes and the paint they bought?
(A) $22, (B) $24, (C) $31, (D) $35
Answer: C
Solve for y. y – 2 + 3y = 10
(A) 2, (B) 3, (C) 4, (D) 5
Answer: B
Solve 3 over 2 * w = 66.
(A) 33, (B) 44, (C) 88, (D) 99
Answer: B
Write 5.875 as a mixed number or fraction in simplest form.
(A) 5 and 8 over 9, (B) 5 and 7 over 8, (C) 7 over 8, (D) 5 and 87 over 105
Answer: B
Solve the equation 124 = m + 34.
(A) 158, (B) 90, (C) 88, (D) 4,216
Answer: B
Zelma buys p pounds of bananas for 40 cents per pound. She pays the clerk with a twenty-dollar bill. The clerk subtracts the total cost of the bananas from the twenty-dollar bill to determine the amount of change to give Zelma. Which expression represents the amount of change Zelma should receive?
(A) p - 20, (B) 20 - 40p, (C) 20 - 0.40p, (D) 0.40p - 20
Answer: C
Please answer the following question with just the correct option (A, B, C, or D) without any explanation or additional text.
Statement 1 | Suppose {s_n} and {t_n} are sequences of complex numbers such that lim_n→∞ s_n = s and lim_n→∞ tn = t. lim_n→∞ s_nt_n = st. Statement 2 | There exists a bounded sequence of real numbers with no convergent subsequence.
(A) 'True, True', (B) 'True, False', (C) 'False, True', (D) 'False, False'
Answer:","","","","","","","","","","","","","","","","","","","","","",""
"","","","","","","","","","","","","","","","","","","","","","","","","","","","B","","","","","","","","","","","","","","","","","","","","",""
"","","","","","","","","","","","","","","","","","","","","","","","","","","","","false","117","-1","B","true","true","defer","[]","false","0","true","2","{""elementary_mathematics"":[""40/50"",""31/50"",""4 / 5""],""high_school_mathematics"":[""27/50"",""22/50"",""3/6""],""college_mathematics"":[""22/50"",""27/51"",""3/6""]}","{""college_mathematics"":false,""high_school_mathematics"":true}","You should outsource this problem to the AI agent","false","null","true","null","null",""
"image-keyboard-response","13","631960","0.0-4.0-2.2","w8dx01bw9jlapf7","673204494167687dfb6a5747","67b62c430b9240ccd8986e70","67b6317b1d214b09fca7cc5f","1","null","","","null","","","Statement 1 | Suppose {s_n} and {t_n} are sequences of complex numbers such that lim_n→∞ s_n = s and lim_n→∞ tn = t. lim_n→∞ s_nt_n = st. Statement 2 | There exists a bounded sequence of real numbers with no convergent subsequence.","[""True, True"",""True, False"",""False, True"",""False, False""]","B","A","modiste","","B","104","algLinUCB_0.9","diff-topics","college_mathematics","The following are multiple choice questions about high_school_mathematics.
Colton and his dad bought a gallon of paint that cost $13. They also bought 2 brushes that cost $9 each. What was the total cost, not including tax, of the brushes and the paint they bought?
(A) $22, (B) $24, (C) $31, (D) $35
Answer: C
Solve for y. y – 2 + 3y = 10
(A) 2, (B) 3, (C) 4, (D) 5
Answer: B
Solve 3 over 2 * w = 66.
(A) 33, (B) 44, (C) 88, (D) 99
Answer: B
Write 5.875 as a mixed number or fraction in simplest form.
(A) 5 and 8 over 9, (B) 5 and 7 over 8, (C) 7 over 8, (D) 5 and 87 over 105
Answer: B
Solve the equation 124 = m + 34.
(A) 158, (B) 90, (C) 88, (D) 4,216
Answer: B
Zelma buys p pounds of bananas for 40 cents per pound. She pays the clerk with a twenty-dollar bill. The clerk subtracts the total cost of the bananas from the twenty-dollar bill to determine the amount of change to give Zelma. Which expression represents the amount of change Zelma should receive?
(A) p - 20, (B) 20 - 40p, (C) 20 - 0.40p, (D) 0.40p - 20
Answer: C
Please answer the following question with just the correct option (A, B, C, or D) without any explanation or additional text.
Statement 1 | Suppose {s_n} and {t_n} are sequences of complex numbers such that lim_n→∞ s_n = s and lim_n→∞ tn = t. lim_n→∞ s_nt_n = st. Statement 2 | There exists a bounded sequence of real numbers with no convergent subsequence.
(A) 'True, True', (B) 'True, False', (C) 'False, True', (D) 'False, False'
Answer:","","","","","","","","","","","","","","","","","","","","","","feedback_imgs/Correct.png"
"call-function","14","631960","0.0-4.0-0.3","w8dx01bw9jlapf7","673204494167687dfb6a5747","67b62c430b9240ccd8986e70","67b6317b1d214b09fca7cc5f","1","","","","","","defer","What is 123 / 8?","[""15 remainder 7"",""15 remainder 3"",""16 remainder 5"",""16 remainder 1""]","B","B","modiste","","B","91","algLinUCB_0.9","diff-topics","elementary_mathematics","The following are multiple choice questions about high_school_mathematics.
Colton and his dad bought a gallon of paint that cost $13. They also bought 2 brushes that cost $9 each. What was the total cost, not including tax, of the brushes and the paint they bought?
(A) $22, (B) $24, (C) $31, (D) $35
Answer: C
Solve for y. y – 2 + 3y = 10
(A) 2, (B) 3, (C) 4, (D) 5
Answer: B
Solve 3 over 2 * w = 66.
(A) 33, (B) 44, (C) 88, (D) 99
Answer: B
Write 5.875 as a mixed number or fraction in simplest form.
(A) 5 and 8 over 9, (B) 5 and 7 over 8, (C) 7 over 8, (D) 5 and 87 over 105
Answer: B
Solve the equation 124 = m + 34.
(A) 158, (B) 90, (C) 88, (D) 4,216
Answer: B
Zelma buys p pounds of bananas for 40 cents per pound. She pays the clerk with a twenty-dollar bill. The clerk subtracts the total cost of the bananas from the twenty-dollar bill to determine the amount of change to give Zelma. Which expression represents the amount of change Zelma should receive?
(A) p - 20, (B) 20 - 40p, (C) 20 - 0.40p, (D) 0.40p - 20
Answer: C
Please answer the following question with just the correct option (A, B, C, or D) without any explanation or additional text.
What is 123 / 8?
(A) '15 remainder 7', (B) '15 remainder 3', (C) '16 remainder 5', (D) '16 remainder 1'
Answer:","","","","","","","","","","","","","","","","","","","","","",""
"survey-html-form","15","657155","0.0-4.0-1.3","w8dx01bw9jlapf7","673204494167687dfb6a5747","67b62c430b9240ccd8986e70","67b6317b1d214b09fca7cc5f","1","25194.19999998808","","","{""mcAnswer"":""B""}","","","What is 123 / 8?","[""15 remainder 7"",""15 remainder 3"",""16 remainder 5"",""16 remainder 1""]","B","B","modiste","","B","91","algLinUCB_0.9","diff-topics","elementary_mathematics","The following are multiple choice questions about high_school_mathematics.
Colton and his dad bought a gallon of paint that cost $13. They also bought 2 brushes that cost $9 each. What was the total cost, not including tax, of the brushes and the paint they bought?
(A) $22, (B) $24, (C) $31, (D) $35
Answer: C
Solve for y. y – 2 + 3y = 10
(A) 2, (B) 3, (C) 4, (D) 5
Answer: B
Solve 3 over 2 * w = 66.
(A) 33, (B) 44, (C) 88, (D) 99
Answer: B
Write 5.875 as a mixed number or fraction in simplest form.
(A) 5 and 8 over 9, (B) 5 and 7 over 8, (C) 7 over 8, (D) 5 and 87 over 105
Answer: B
Solve the equation 124 = m + 34.
(A) 158, (B) 90, (C) 88, (D) 4,216
Answer: B
Zelma buys p pounds of bananas for 40 cents per pound. She pays the clerk with a twenty-dollar bill. The clerk subtracts the total cost of the bananas from the twenty-dollar bill to determine the amount of change to give Zelma. Which expression represents the amount of change Zelma should receive?
(A) p - 20, (B) 20 - 40p, (C) 20 - 0.40p, (D) 0.40p - 20
Answer: C
Please answer the following question with just the correct option (A, B, C, or D) without any explanation or additional text.
What is 123 / 8?
(A) '15 remainder 7', (B) '15 remainder 3', (C) '16 remainder 5', (D) '16 remainder 1'
Answer:","","","","","","","","","","","","","","","","","","","","","",""
"","","","","","","","","","","","","","","","","","","","","","","","","","","","B","","","","","","","","","","","","","","","","","","","","",""
"","","","","","","","","","","","","","","","","","","","","","","","","","","","","false","127","-1","B","true","true","defer","[]","false","0","false","0","{""elementary_mathematics"":[""40/50"",""31/50"",""5/6""],""high_school_mathematics"":[""27/50"",""22/50"",""3/6""],""college_mathematics"":[""22/50"",""27/51"",""3/6""]}","{""college_mathematics"":false,""high_school_mathematics"":true,""elementary_mathematics"":false}","You should attempt this problem by yourself","null","null","null","null","true",""
"image-keyboard-response","16","658656","0.0-4.0-2.3","w8dx01bw9jlapf7","673204494167687dfb6a5747","67b62c430b9240ccd8986e70","67b6317b1d214b09fca7cc5f","1","null","","","null","","","What is 123 / 8?","[""15 remainder 7"",""15 remainder 3"",""16 remainder 5"",""16 remainder 1""]","B","B","modiste","","B","91","algLinUCB_0.9","diff-topics","elementary_mathematics","The following are multiple choice questions about high_school_mathematics.
Colton and his dad bought a gallon of paint that cost $13. They also bought 2 brushes that cost $9 each. What was the total cost, not including tax, of the brushes and the paint they bought?
(A) $22, (B) $24, (C) $31, (D) $35
Answer: C
Solve for y. y – 2 + 3y = 10
(A) 2, (B) 3, (C) 4, (D) 5
Answer: B
Solve 3 over 2 * w = 66.
(A) 33, (B) 44, (C) 88, (D) 99
Answer: B
Write 5.875 as a mixed number or fraction in simplest form.
(A) 5 and 8 over 9, (B) 5 and 7 over 8, (C) 7 over 8, (D) 5 and 87 over 105
Answer: B
Solve the equation 124 = m + 34.
(A) 158, (B) 90, (C) 88, (D) 4,216
Answer: B
Zelma buys p pounds of bananas for 40 cents per pound. She pays the clerk with a twenty-dollar bill. The clerk subtracts the total cost of the bananas from the twenty-dollar bill to determine the amount of change to give Zelma. Which expression represents the amount of change Zelma should receive?
(A) p - 20, (B) 20 - 40p, (C) 20 - 0.40p, (D) 0.40p - 20
Answer: C
Please answer the following question with just the correct option (A, B, C, or D) without any explanation or additional text.
What is 123 / 8?
(A) '15 remainder 7', (B) '15 remainder 3', (C) '16 remainder 5', (D) '16 remainder 1'
Answer:","","","","","","","","","","","","","","","","","","","","","","feedback_imgs/Correct.png"
"call-function","17","658656","0.0-4.0-0.4","w8dx01bw9jlapf7","673204494167687dfb6a5747","67b62c430b9240ccd8986e70","67b6317b1d214b09fca7cc5f","1","","","","","","defer","How many ways are there to choose 3 cards from a standard deck of 52 cards, if all three cards must be of different suits? (Assume that the order of the cards does not matter.)","[""8788"",""2"",""2197"",""21""]","C","B","modiste","","A","78","algLinUCB_0.9","diff-topics","high_school_mathematics","The following are multiple choice questions about high_school_mathematics.
Colton and his dad bought a gallon of paint that cost $13. They also bought 2 brushes that cost $9 each. What was the total cost, not including tax, of the brushes and the paint they bought?
(A) $22, (B) $24, (C) $31, (D) $35
Answer: C
Solve for y. y – 2 + 3y = 10
(A) 2, (B) 3, (C) 4, (D) 5
Answer: B
Solve 3 over 2 * w = 66.
(A) 33, (B) 44, (C) 88, (D) 99
Answer: B
Write 5.875 as a mixed number or fraction in simplest form.
(A) 5 and 8 over 9, (B) 5 and 7 over 8, (C) 7 over 8, (D) 5 and 87 over 105
Answer: B
Solve the equation 124 = m + 34.
(A) 158, (B) 90, (C) 88, (D) 4,216
Answer: B
Zelma buys p pounds of bananas for 40 cents per pound. She pays the clerk with a twenty-dollar bill. The clerk subtracts the total cost of the bananas from the twenty-dollar bill to determine the amount of change to give Zelma. Which expression represents the amount of change Zelma should receive?
(A) p - 20, (B) 20 - 40p, (C) 20 - 0.40p, (D) 0.40p - 20
Answer: C
Please answer the following question with just the correct option (A, B, C, or D) without any explanation or additional text.
How many ways are there to choose 3 cards from a standard deck of 52 cards, if all three cards must be of different suits? (Assume that the order of the cards does not matter.)
(A) '8788', (B) '2', (C) '2197', (D) '21'
Answer:","","","","","","","","","","true","2","","","","","","","","","","",""
"survey-html-form","18","696782","0.0-4.0-1.4","w8dx01bw9jlapf7","673204494167687dfb6a5747","67b62c430b9240ccd8986e70","67b6317b1d214b09fca7cc5f","1","38124.70000001788","","","{""mcAnswer"":""A""}","","","How many ways are there to choose 3 cards from a standard deck of 52 cards, if all three cards must be of different suits? (Assume that the order of the cards does not matter.)","[""8788"",""2"",""2197"",""21""]","C","B","modiste","","A","78","algLinUCB_0.9","diff-topics","high_school_mathematics","The following are multiple choice questions about high_school_mathematics.
Colton and his dad bought a gallon of paint that cost $13. They also bought 2 brushes that cost $9 each. What was the total cost, not including tax, of the brushes and the paint they bought?
(A) $22, (B) $24, (C) $31, (D) $35
Answer: C
Solve for y. y – 2 + 3y = 10
(A) 2, (B) 3, (C) 4, (D) 5
Answer: B
Solve 3 over 2 * w = 66.
(A) 33, (B) 44, (C) 88, (D) 99
Answer: B
Write 5.875 as a mixed number or fraction in simplest form.
(A) 5 and 8 over 9, (B) 5 and 7 over 8, (C) 7 over 8, (D) 5 and 87 over 105
Answer: B
Solve the equation 124 = m + 34.
(A) 158, (B) 90, (C) 88, (D) 4,216
Answer: B
Zelma buys p pounds of bananas for 40 cents per pound. She pays the clerk with a twenty-dollar bill. The clerk subtracts the total cost of the bananas from the twenty-dollar bill to determine the amount of change to give Zelma. Which expression represents the amount of change Zelma should receive?
(A) p - 20, (B) 20 - 40p, (C) 20 - 0.40p, (D) 0.40p - 20
Answer: C
Please answer the following question with just the correct option (A, B, C, or D) without any explanation or additional text.
How many ways are there to choose 3 cards from a standard deck of 52 cards, if all three cards must be of different suits? (Assume that the order of the cards does not matter.)
(A) '8788', (B) '2', (C) '2197', (D) '21'
Answer:","","","","","","","","","","","","","","","","","","","","","",""
"","","","","","","","","","","","","","","","","","","","","","","","","","","","A","","","","","","","","","","","","","","","","","","","","",""
"","","","","","","","","","","","","","","","","","","","","","","","","","","","","false","130","-1","C","true","false","defer","[]","true","2","false","0","{""elementary_mathematics"":[""40/50"",""31/50"",""5/6""],""high_school_mathematics"":[""28/51"",""22/50"",""3/6""],""college_mathematics"":[""22/50"",""27/51"",""3/6""]}","{""college_mathematics"":false,""high_school_mathematics"":false,""elementary_mathematics"":false}","You were wrong by yourself on high_school_mathematics last time. You should outsource this problem to a human agent","null","true","null","true","null",""
"image-keyboard-response","19","698282","0.0-4.0-2.4","w8dx01bw9jlapf7","673204494167687dfb6a5747","67b62c430b9240ccd8986e70","67b6317b1d214b09fca7cc5f","1","null","","","null","","","How many ways are there to choose 3 cards from a standard deck of 52 cards, if all three cards must be of different suits? (Assume that the order of the cards does not matter.)","[""8788"",""2"",""2197"",""21""]","C","B","modiste","","A","78","algLinUCB_0.9","diff-topics","high_school_mathematics","The following are multiple choice questions about high_school_mathematics.
Colton and his dad bought a gallon of paint that cost $13. They also bought 2 brushes that cost $9 each. What was the total cost, not including tax, of the brushes and the paint they bought?
(A) $22, (B) $24, (C) $31, (D) $35
Answer: C
Solve for y. y – 2 + 3y = 10
(A) 2, (B) 3, (C) 4, (D) 5
Answer: B
Solve 3 over 2 * w = 66.
(A) 33, (B) 44, (C) 88, (D) 99
Answer: B
Write 5.875 as a mixed number or fraction in simplest form.
(A) 5 and 8 over 9, (B) 5 and 7 over 8, (C) 7 over 8, (D) 5 and 87 over 105
Answer: B
Solve the equation 124 = m + 34.
(A) 158, (B) 90, (C) 88, (D) 4,216
Answer: B
Zelma buys p pounds of bananas for 40 cents per pound. She pays the clerk with a twenty-dollar bill. The clerk subtracts the total cost of the bananas from the twenty-dollar bill to determine the amount of change to give Zelma. Which expression represents the amount of change Zelma should receive?
(A) p - 20, (B) 20 - 40p, (C) 20 - 0.40p, (D) 0.40p - 20
Answer: C
Please answer the following question with just the correct option (A, B, C, or D) without any explanation or additional text.
How many ways are there to choose 3 cards from a standard deck of 52 cards, if all three cards must be of different suits? (Assume that the order of the cards does not matter.)
(A) '8788', (B) '2', (C) '2197', (D) '21'
Answer:","","","","","","","","","","","","","","","","","","","","","","feedback_imgs/Correct.png"
"call-function","20","698283","0.0-4.0-0.5","w8dx01bw9jlapf7","673204494167687dfb6a5747","67b62c430b9240ccd8986e70","67b6317b1d214b09fca7cc5f","1","","","","","","defer","Let V be the real vector space of all real 2 x 3 matrices, and let W be the real vector space of all real 4 x 1 column vectors. If T is a linear transformation from V onto W, what is the dimension of the subspace kernel of T?","[""2"",""3"",""4"",""5""]","B","C","modiste","","A","117","algLinUCB_0.9","diff-topics","college_mathematics","The following are multiple choice questions about high_school_mathematics.
Colton and his dad bought a gallon of paint that cost $13. They also bought 2 brushes that cost $9 each. What was the total cost, not including tax, of the brushes and the paint they bought?
(A) $22, (B) $24, (C) $31, (D) $35
Answer: C
Solve for y. y – 2 + 3y = 10
(A) 2, (B) 3, (C) 4, (D) 5
Answer: B
Solve 3 over 2 * w = 66.
(A) 33, (B) 44, (C) 88, (D) 99
Answer: B
Write 5.875 as a mixed number or fraction in simplest form.
(A) 5 and 8 over 9, (B) 5 and 7 over 8, (C) 7 over 8, (D) 5 and 87 over 105
Answer: B
Solve the equation 124 = m + 34.
(A) 158, (B) 90, (C) 88, (D) 4,216
Answer: B
Zelma buys p pounds of bananas for 40 cents per pound. She pays the clerk with a twenty-dollar bill. The clerk subtracts the total cost of the bananas from the twenty-dollar bill to determine the amount of change to give Zelma. Which expression represents the amount of change Zelma should receive?
(A) p - 20, (B) 20 - 40p, (C) 20 - 0.40p, (D) 0.40p - 20
Answer: C
Please answer the following question with just the correct option (A, B, C, or D) without any explanation or additional text.
Let V be the real vector space of all real 2 x 3 matrices, and let W be the real vector space of all real 4 x 1 column vectors. If T is a linear transformation from V onto W, what is the dimension of the subspace kernel of T?
(A) '2', (B) '3', (C) '4', (D) '5'
Answer:","","","","","","","","","","","","true","2","","","","","","","","",""
"survey-html-form","21","744114","0.0-4.0-1.5","w8dx01bw9jlapf7","673204494167687dfb6a5747","67b62c430b9240ccd8986e70","67b6317b1d214b09fca7cc5f","1","45830.5","","","{""mcAnswer"":""A""}","","","Let V be the real vector space of all real 2 x 3 matrices, and let W be the real vector space of all real 4 x 1 column vectors. If T is a linear transformation from V onto W, what is the dimension of the subspace kernel of T?","[""2"",""3"",""4"",""5""]","B","C","modiste","","A","117","algLinUCB_0.9","diff-topics","college_mathematics","The following are multiple choice questions about high_school_mathematics.
Colton and his dad bought a gallon of paint that cost $13. They also bought 2 brushes that cost $9 each. What was the total cost, not including tax, of the brushes and the paint they bought?
(A) $22, (B) $24, (C) $31, (D) $35
Answer: C
Solve for y. y – 2 + 3y = 10
(A) 2, (B) 3, (C) 4, (D) 5
Answer: B
Solve 3 over 2 * w = 66.
(A) 33, (B) 44, (C) 88, (D) 99
Answer: B
Write 5.875 as a mixed number or fraction in simplest form.
(A) 5 and 8 over 9, (B) 5 and 7 over 8, (C) 7 over 8, (D) 5 and 87 over 105
Answer: B
Solve the equation 124 = m + 34.
(A) 158, (B) 90, (C) 88, (D) 4,216
Answer: B
Zelma buys p pounds of bananas for 40 cents per pound. She pays the clerk with a twenty-dollar bill. The clerk subtracts the total cost of the bananas from the twenty-dollar bill to determine the amount of change to give Zelma. Which expression represents the amount of change Zelma should receive?
(A) p - 20, (B) 20 - 40p, (C) 20 - 0.40p, (D) 0.40p - 20
Answer: C
Please answer the following question with just the correct option (A, B, C, or D) without any explanation or additional text.
Let V be the real vector space of all real 2 x 3 matrices, and let W be the real vector space of all real 4 x 1 column vectors. If T is a linear transformation from V onto W, what is the dimension of the subspace kernel of T?
(A) '2', (B) '3', (C) '4', (D) '5'
Answer:","","","","","","","","","","","","","","","","","","","","","",""
"","","","","","","","","","","","","","","","","","","","","","","","","","","","A","","","","","","","","","","","","","","","","","","","","",""
"","","","","","","","","","","","","","","","","","","","","","","","","","","","","false","137","-1","B","true","false","defer","[]","false","0","true","2","{""elementary_mathematics"":[""40/50"",""31/50"",""5/6""],""high_school_mathematics"":[""28/51"",""22/50"",""3/6""],""college_mathematics"":[""22/50"",""28/52"",""3/6""]}","{""college_mathematics"":false,""high_school_mathematics"":false,""elementary_mathematics"":false}","You should outsource this problem to the AI agent","true","null","true","null","null",""
"image-keyboard-response","22","745626","0.0-4.0-2.5","w8dx01bw9jlapf7","673204494167687dfb6a5747","67b62c430b9240ccd8986e70","67b6317b1d214b09fca7cc5f","1","null","","","null","","","Let V be the real vector space of all real 2 x 3 matrices, and let W be the real vector space of all real 4 x 1 column vectors. If T is a linear transformation from V onto W, what is the dimension of the subspace kernel of T?","[""2"",""3"",""4"",""5""]","B","C","modiste","","A","117","algLinUCB_0.9","diff-topics","college_mathematics","The following are multiple choice questions about high_school_mathematics.
Colton and his dad bought a gallon of paint that cost $13. They also bought 2 brushes that cost $9 each. What was the total cost, not including tax, of the brushes and the paint they bought?
(A) $22, (B) $24, (C) $31, (D) $35
Answer: C
Solve for y. y – 2 + 3y = 10
(A) 2, (B) 3, (C) 4, (D) 5
Answer: B
Solve 3 over 2 * w = 66.
(A) 33, (B) 44, (C) 88, (D) 99
Answer: B
Write 5.875 as a mixed number or fraction in simplest form.
(A) 5 and 8 over 9, (B) 5 and 7 over 8, (C) 7 over 8, (D) 5 and 87 over 105
Answer: B
Solve the equation 124 = m + 34.
(A) 158, (B) 90, (C) 88, (D) 4,216
Answer: B
Zelma buys p pounds of bananas for 40 cents per pound. She pays the clerk with a twenty-dollar bill. The clerk subtracts the total cost of the bananas from the twenty-dollar bill to determine the amount of change to give Zelma. Which expression represents the amount of change Zelma should receive?
(A) p - 20, (B) 20 - 40p, (C) 20 - 0.40p, (D) 0.40p - 20
Answer: C
Please answer the following question with just the correct option (A, B, C, or D) without any explanation or additional text.
Let V be the real vector space of all real 2 x 3 matrices, and let W be the real vector space of all real 4 x 1 column vectors. If T is a linear transformation from V onto W, what is the dimension of the subspace kernel of T?
(A) '2', (B) '3', (C) '4', (D) '5'
Answer:","","","","","","","","","","","","","","","","","","","","","","feedback_imgs/Correct.png"
"call-function","23","745627","0.0-4.0-0.6","w8dx01bw9jlapf7","673204494167687dfb6a5747","67b62c430b9240ccd8986e70","67b6317b1d214b09fca7cc5f","1","","","","","","defer","A theater collected 6 for each ticket sold to a movie. The theater sold 500 tickets to the movie. The expression below can be used to find how much money the theater collected for the tickets. 6 × 500 Which expression can also be used to find how much money the theater collected for the tickets?","[""30 × 10^1"",""30 × 10^3"",""(6 × 5) × 10^2"",""(6 × 5) × 10^3""]","C","C","modiste","","C","98","algLinUCB_0.9","diff-topics","elementary_mathematics","The following are multiple choice questions about high_school_mathematics.
Colton and his dad bought a gallon of paint that cost $13. They also bought 2 brushes that cost $9 each. What was the total cost, not including tax, of the brushes and the paint they bought?
(A) $22, (B) $24, (C) $31, (D) $35
Answer: C
Solve for y. y – 2 + 3y = 10
(A) 2, (B) 3, (C) 4, (D) 5
Answer: B
Solve 3 over 2 * w = 66.
(A) 33, (B) 44, (C) 88, (D) 99
Answer: B
Write 5.875 as a mixed number or fraction in simplest form.
(A) 5 and 8 over 9, (B) 5 and 7 over 8, (C) 7 over 8, (D) 5 and 87 over 105
Answer: B
Solve the equation 124 = m + 34.
(A) 158, (B) 90, (C) 88, (D) 4,216
Answer: B
Zelma buys p pounds of bananas for 40 cents per pound. She pays the clerk with a twenty-dollar bill. The clerk subtracts the total cost of the bananas from the twenty-dollar bill to determine the amount of change to give Zelma. Which expression represents the amount of change Zelma should receive?
(A) p - 20, (B) 20 - 40p, (C) 20 - 0.40p, (D) 0.40p - 20
Answer: C
Please answer the following question with just the correct option (A, B, C, or D) without any explanation or additional text.
A theater collected 6 for each ticket sold to a movie. The theater sold 500 tickets to the movie. The expression below can be used to find how much money the theater collected for the tickets. 6 × 500 Which expression can also be used to find how much money the theater collected for the tickets?
(A) '30 × 10^1', (B) '30 × 10^3', (C) '(6 × 5) × 10^2', (D) '(6 × 5) × 10^3'
Answer:","","","","","","","","","","","","","","","","","","","","","",""
"survey-html-form","24","1160500","0.0-4.0-1.6","w8dx01bw9jlapf7","673204494167687dfb6a5747","67b62c430b9240ccd8986e70","67b6317b1d214b09fca7cc5f","1","414872.6999999881","","","{""mcAnswer"":""C""}","","","A theater collected 6 for each ticket sold to a movie. The theater sold 500 tickets to the movie. The expression below can be used to find how much money the theater collected for the tickets. 6 × 500 Which expression can also be used to find how much money the theater collected for the tickets?","[""30 × 10^1"",""30 × 10^3"",""(6 × 5) × 10^2"",""(6 × 5) × 10^3""]","C","C","modiste","","C","98","algLinUCB_0.9","diff-topics","elementary_mathematics","The following are multiple choice questions about high_school_mathematics.
Colton and his dad bought a gallon of paint that cost $13. They also bought 2 brushes that cost $9 each. What was the total cost, not including tax, of the brushes and the paint they bought?
(A) $22, (B) $24, (C) $31, (D) $35
Answer: C
Solve for y. y – 2 + 3y = 10
(A) 2, (B) 3, (C) 4, (D) 5
Answer: B
Solve 3 over 2 * w = 66.
(A) 33, (B) 44, (C) 88, (D) 99
Answer: B
Write 5.875 as a mixed number or fraction in simplest form.
(A) 5 and 8 over 9, (B) 5 and 7 over 8, (C) 7 over 8, (D) 5 and 87 over 105
Answer: B
Solve the equation 124 = m + 34.
(A) 158, (B) 90, (C) 88, (D) 4,216
Answer: B
Zelma buys p pounds of bananas for 40 cents per pound. She pays the clerk with a twenty-dollar bill. The clerk subtracts the total cost of the bananas from the twenty-dollar bill to determine the amount of change to give Zelma. Which expression represents the amount of change Zelma should receive?
(A) p - 20, (B) 20 - 40p, (C) 20 - 0.40p, (D) 0.40p - 20
Answer: C
Please answer the following question with just the correct option (A, B, C, or D) without any explanation or additional text.
A theater collected 6 for each ticket sold to a movie. The theater sold 500 tickets to the movie. The expression below can be used to find how much money the theater collected for the tickets. 6 × 500 Which expression can also be used to find how much money the theater collected for the tickets?
(A) '30 × 10^1', (B) '30 × 10^3', (C) '(6 × 5) × 10^2', (D) '(6 × 5) × 10^3'
Answer:","","","","","","","","","","","","","","","","","","","","","",""
"","","","","","","","","","","","","","","","","","","","","","","","","","","","C","","","","","","","","","","","","","","","","","","","","",""
"","","","","","","","","","","","","","","","","","","","","","","","","","","","","false","147","-1","C","true","true","defer","[]","false","0","false","0","{""elementary_mathematics"":[""40/50"",""31/50"",""6/7""],""high_school_mathematics"":[""28/51"",""22/50"",""3/6""],""college_mathematics"":[""22/50"",""28/52"",""3/6""]}","{""college_mathematics"":false,""high_school_mathematics"":false,""elementary_mathematics"":false}","You should attempt this problem by yourself","null","null","null","null","true",""
"image-keyboard-response","25","1162002","0.0-4.0-2.6","w8dx01bw9jlapf7","673204494167687dfb6a5747","67b62c430b9240ccd8986e70","67b6317b1d214b09fca7cc5f","1","null","","","null","","","A theater collected 6 for each ticket sold to a movie. The theater sold 500 tickets to the movie. The expression below can be used to find how much money the theater collected for the tickets. 6 × 500 Which expression can also be used to find how much money the theater collected for the tickets?","[""30 × 10^1"",""30 × 10^3"",""(6 × 5) × 10^2"",""(6 × 5) × 10^3""]","C","C","modiste","","C","98","algLinUCB_0.9","diff-topics","elementary_mathematics","The following are multiple choice questions about high_school_mathematics.
Colton and his dad bought a gallon of paint that cost $13. They also bought 2 brushes that cost $9 each. What was the total cost, not including tax, of the brushes and the paint they bought?
(A) $22, (B) $24, (C) $31, (D) $35
Answer: C
Solve for y. y – 2 + 3y = 10
(A) 2, (B) 3, (C) 4, (D) 5
Answer: B
Solve 3 over 2 * w = 66.
(A) 33, (B) 44, (C) 88, (D) 99
Answer: B
Write 5.875 as a mixed number or fraction in simplest form.
(A) 5 and 8 over 9, (B) 5 and 7 over 8, (C) 7 over 8, (D) 5 and 87 over 105
Answer: B
Solve the equation 124 = m + 34.
(A) 158, (B) 90, (C) 88, (D) 4,216
Answer: B
Zelma buys p pounds of bananas for 40 cents per pound. She pays the clerk with a twenty-dollar bill. The clerk subtracts the total cost of the bananas from the twenty-dollar bill to determine the amount of change to give Zelma. Which expression represents the amount of change Zelma should receive?
(A) p - 20, (B) 20 - 40p, (C) 20 - 0.40p, (D) 0.40p - 20
Answer: C
Please answer the following question with just the correct option (A, B, C, or D) without any explanation or additional text.
A theater collected 6 for each ticket sold to a movie. The theater sold 500 tickets to the movie. The expression below can be used to find how much money the theater collected for the tickets. 6 × 500 Which expression can also be used to find how much money the theater collected for the tickets?
(A) '30 × 10^1', (B) '30 × 10^3', (C) '(6 × 5) × 10^2', (D) '(6 × 5) × 10^3'
Answer:","","","","","","","","","","","","","","","","","","","","","","feedback_imgs/Correct.png"
"call-function","26","1162002","0.0-4.0-0.7","w8dx01bw9jlapf7","673204494167687dfb6a5747","67b62c430b9240ccd8986e70","67b6317b1d214b09fca7cc5f","1","","","","","","defer","Let R be a ring with a multiplicative identity. If U is an additive subgroup of R such that ur in U for all u in U and for all r in R, then U is said to be a right ideal of R. If R has exactly two right ideals, which of the following must be true?
I. R is commutative.
II. R is a division ring (that is, all elements except the additive identity have multiplicative inverses).
III. R is infinite.","[""I only"",""II only"",""III only"",""I and II only""]","B","B","modiste","","B","102","algLinUCB_0.9","diff-topics","college_mathematics","The following are multiple choice questions about high_school_mathematics.
Colton and his dad bought a gallon of paint that cost $13. They also bought 2 brushes that cost $9 each. What was the total cost, not including tax, of the brushes and the paint they bought?
(A) $22, (B) $24, (C) $31, (D) $35
Answer: C
Solve for y. y – 2 + 3y = 10
(A) 2, (B) 3, (C) 4, (D) 5
Answer: B
Solve 3 over 2 * w = 66.
(A) 33, (B) 44, (C) 88, (D) 99
Answer: B
Write 5.875 as a mixed number or fraction in simplest form.
(A) 5 and 8 over 9, (B) 5 and 7 over 8, (C) 7 over 8, (D) 5 and 87 over 105
Answer: B
Solve the equation 124 = m + 34.
(A) 158, (B) 90, (C) 88, (D) 4,216
Answer: B
Zelma buys p pounds of bananas for 40 cents per pound. She pays the clerk with a twenty-dollar bill. The clerk subtracts the total cost of the bananas from the twenty-dollar bill to determine the amount of change to give Zelma. Which expression represents the amount of change Zelma should receive?
(A) p - 20, (B) 20 - 40p, (C) 20 - 0.40p, (D) 0.40p - 20
Answer: C
Please answer the following question with just the correct option (A, B, C, or D) without any explanation or additional text.
Let R be a ring with a multiplicative identity. If U is an additive subgroup of R such that ur in U for all u in U and for all r in R, then U is said to be a right ideal of R. If R has exactly two right ideals, which of the following must be true?
I. R is commutative.
II. R is a division ring (that is, all elements except the additive identity have multiplicative inverses).
III. R is infinite.
(A) 'I only', (B) 'II only', (C) 'III only', (D) 'I and II only'
Answer:","","","","","","","","","","","","","","","","","","","","","",""
"survey-html-form","27","1193603","0.0-4.0-1.7","w8dx01bw9jlapf7","673204494167687dfb6a5747","67b62c430b9240ccd8986e70","67b6317b1d214b09fca7cc5f","1","31600.30000001192","","","{""mcAnswer"":""C""}","","","Let R be a ring with a multiplicative identity. If U is an additive subgroup of R such that ur in U for all u in U and for all r in R, then U is said to be a right ideal of R. If R has exactly two right ideals, which of the following must be true?
I. R is commutative.
II. R is a division ring (that is, all elements except the additive identity have multiplicative inverses).
III. R is infinite.","[""I only"",""II only"",""III only"",""I and II only""]","B","B","modiste","","B","102","algLinUCB_0.9","diff-topics","college_mathematics","The following are multiple choice questions about high_school_mathematics.
Colton and his dad bought a gallon of paint that cost $13. They also bought 2 brushes that cost $9 each. What was the total cost, not including tax, of the brushes and the paint they bought?
(A) $22, (B) $24, (C) $31, (D) $35
Answer: C
Solve for y. y – 2 + 3y = 10
(A) 2, (B) 3, (C) 4, (D) 5
Answer: B
Solve 3 over 2 * w = 66.
(A) 33, (B) 44, (C) 88, (D) 99
Answer: B
Write 5.875 as a mixed number or fraction in simplest form.
(A) 5 and 8 over 9, (B) 5 and 7 over 8, (C) 7 over 8, (D) 5 and 87 over 105
Answer: B
Solve the equation 124 = m + 34.
(A) 158, (B) 90, (C) 88, (D) 4,216
Answer: B
Zelma buys p pounds of bananas for 40 cents per pound. She pays the clerk with a twenty-dollar bill. The clerk subtracts the total cost of the bananas from the twenty-dollar bill to determine the amount of change to give Zelma. Which expression represents the amount of change Zelma should receive?
(A) p - 20, (B) 20 - 40p, (C) 20 - 0.40p, (D) 0.40p - 20
Answer: C
Please answer the following question with just the correct option (A, B, C, or D) without any explanation or additional text.
Let R be a ring with a multiplicative identity. If U is an additive subgroup of R such that ur in U for all u in U and for all r in R, then U is said to be a right ideal of R. If R has exactly two right ideals, which of the following must be true?
I. R is commutative.
II. R is a division ring (that is, all elements except the additive identity have multiplicative inverses).
III. R is infinite.
(A) 'I only', (B) 'II only', (C) 'III only', (D) 'I and II only'
Answer:","","","","","","","","","","","","","","","","","","","","","",""
"","","","","","","","","","","","","","","","","","","","","","","","","","","","C","","","","","","","","","","","","","","","","","","","","",""
"","","","","","","","","","","","","","","","","","","","","","","","","","","","","false","147","-1","B","false","true","defer","[]","false","0","false","0","{""elementary_mathematics"":[""40/50"",""31/50"",""6/7""],""high_school_mathematics"":[""28/51"",""22/50"",""3/6""],""college_mathematics"":[""22/50"",""28/52"",""3/7""]}","{""college_mathematics"":true,""high_school_mathematics"":false,""elementary_mathematics"":false}","You should outsource this problem to the AI agent","null","null","false","null","null",""
"image-keyboard-response","28","1195105","0.0-4.0-2.7","w8dx01bw9jlapf7","673204494167687dfb6a5747","67b62c430b9240ccd8986e70","67b6317b1d214b09fca7cc5f","1","null","","","null","","","Let R be a ring with a multiplicative identity. If U is an additive subgroup of R such that ur in U for all u in U and for all r in R, then U is said to be a right ideal of R. If R has exactly two right ideals, which of the following must be true?
I. R is commutative.
II. R is a division ring (that is, all elements except the additive identity have multiplicative inverses).
III. R is infinite.","[""I only"",""II only"",""III only"",""I and II only""]","B","B","modiste","","B","102","algLinUCB_0.9","diff-topics","college_mathematics","The following are multiple choice questions about high_school_mathematics.
Colton and his dad bought a gallon of paint that cost $13. They also bought 2 brushes that cost $9 each. What was the total cost, not including tax, of the brushes and the paint they bought?
(A) $22, (B) $24, (C) $31, (D) $35
Answer: C
Solve for y. y – 2 + 3y = 10
(A) 2, (B) 3, (C) 4, (D) 5
Answer: B
Solve 3 over 2 * w = 66.
(A) 33, (B) 44, (C) 88, (D) 99
Answer: B
Write 5.875 as a mixed number or fraction in simplest form.
(A) 5 and 8 over 9, (B) 5 and 7 over 8, (C) 7 over 8, (D) 5 and 87 over 105
Answer: B
Solve the equation 124 = m + 34.
(A) 158, (B) 90, (C) 88, (D) 4,216
Answer: B
Zelma buys p pounds of bananas for 40 cents per pound. She pays the clerk with a twenty-dollar bill. The clerk subtracts the total cost of the bananas from the twenty-dollar bill to determine the amount of change to give Zelma. Which expression represents the amount of change Zelma should receive?
(A) p - 20, (B) 20 - 40p, (C) 20 - 0.40p, (D) 0.40p - 20
Answer: C
Please answer the following question with just the correct option (A, B, C, or D) without any explanation or additional text.
Let R be a ring with a multiplicative identity. If U is an additive subgroup of R such that ur in U for all u in U and for all r in R, then U is said to be a right ideal of R. If R has exactly two right ideals, which of the following must be true?
I. R is commutative.
II. R is a division ring (that is, all elements except the additive identity have multiplicative inverses).
III. R is infinite.
(A) 'I only', (B) 'II only', (C) 'III only', (D) 'I and II only'
Answer:","","","","","","","","","","","","","","","","","","","","","","feedback_imgs/Incorrect.png"
"call-function","29","1195105","0.0-4.0-0.8","w8dx01bw9jlapf7","673204494167687dfb6a5747","67b62c430b9240ccd8986e70","67b6317b1d214b09fca7cc5f","1","","","","","","defer","If v is an eigenvector of an invertible matrix A, then which of the following is I are necessarily
true?
I. v is also an eigenvector of 2A.
II. v is also an eigenvector of A^2.
III. v is also an eigenvector of A^(-1).","[""I only"",""II only"",""III only"",""I, II, and III""]","D","B","modiste","","D","100","algLinUCB_0.9","diff-topics","college_mathematics","The following are multiple choice questions about high_school_mathematics.
Colton and his dad bought a gallon of paint that cost $13. They also bought 2 brushes that cost $9 each. What was the total cost, not including tax, of the brushes and the paint they bought?
(A) $22, (B) $24, (C) $31, (D) $35
Answer: C
Solve for y. y – 2 + 3y = 10
(A) 2, (B) 3, (C) 4, (D) 5
Answer: B
Solve 3 over 2 * w = 66.
(A) 33, (B) 44, (C) 88, (D) 99
Answer: B
Write 5.875 as a mixed number or fraction in simplest form.
(A) 5 and 8 over 9, (B) 5 and 7 over 8, (C) 7 over 8, (D) 5 and 87 over 105
Answer: B
Solve the equation 124 = m + 34.
(A) 158, (B) 90, (C) 88, (D) 4,216
Answer: B
Zelma buys p pounds of bananas for 40 cents per pound. She pays the clerk with a twenty-dollar bill. The clerk subtracts the total cost of the bananas from the twenty-dollar bill to determine the amount of change to give Zelma. Which expression represents the amount of change Zelma should receive?
(A) p - 20, (B) 20 - 40p, (C) 20 - 0.40p, (D) 0.40p - 20
Answer: C
Please answer the following question with just the correct option (A, B, C, or D) without any explanation or additional text.
If v is an eigenvector of an invertible matrix A, then which of the following is I are necessarily
true?
I. v is also an eigenvector of 2A.
II. v is also an eigenvector of A^2.
III. v is also an eigenvector of A^(-1).
(A) 'I only', (B) 'II only', (C) 'III only', (D) 'I, II, and III'
Answer:","","","","","","","","","","","","true","2","","","","","","","","",""
"survey-html-form","30","1232589","0.0-4.0-1.8","w8dx01bw9jlapf7","673204494167687dfb6a5747","67b62c430b9240ccd8986e70","67b6317b1d214b09fca7cc5f","1","37482.90000000596","","","{""mcAnswer"":""D""}","","","If v is an eigenvector of an invertible matrix A, then which of the following is I are necessarily
true?
I. v is also an eigenvector of 2A.
II. v is also an eigenvector of A^2.
III. v is also an eigenvector of A^(-1).","[""I only"",""II only"",""III only"",""I, II, and III""]","D","B","modiste","","D","100","algLinUCB_0.9","diff-topics","college_mathematics","The following are multiple choice questions about high_school_mathematics.
Colton and his dad bought a gallon of paint that cost $13. They also bought 2 brushes that cost $9 each. What was the total cost, not including tax, of the brushes and the paint they bought?
(A) $22, (B) $24, (C) $31, (D) $35
Answer: C
Solve for y. y – 2 + 3y = 10
(A) 2, (B) 3, (C) 4, (D) 5
Answer: B
Solve 3 over 2 * w = 66.
(A) 33, (B) 44, (C) 88, (D) 99
Answer: B
Write 5.875 as a mixed number or fraction in simplest form.
(A) 5 and 8 over 9, (B) 5 and 7 over 8, (C) 7 over 8, (D) 5 and 87 over 105
Answer: B
Solve the equation 124 = m + 34.
(A) 158, (B) 90, (C) 88, (D) 4,216
Answer: B
Zelma buys p pounds of bananas for 40 cents per pound. She pays the clerk with a twenty-dollar bill. The clerk subtracts the total cost of the bananas from the twenty-dollar bill to determine the amount of change to give Zelma. Which expression represents the amount of change Zelma should receive?
(A) p - 20, (B) 20 - 40p, (C) 20 - 0.40p, (D) 0.40p - 20
Answer: C
Please answer the following question with just the correct option (A, B, C, or D) without any explanation or additional text.
If v is an eigenvector of an invertible matrix A, then which of the following is I are necessarily
true?
I. v is also an eigenvector of 2A.
II. v is also an eigenvector of A^2.
III. v is also an eigenvector of A^(-1).
(A) 'I only', (B) 'II only', (C) 'III only', (D) 'I, II, and III'
Answer:","","","","","","","","","","","","","","","","","","","","","",""
"","","","","","","","","","","","","","","","","","","","","","","","","","","","D","","","","","","","","","","","","","","","","","","","","",""
"","","","","","","","","","","","","","","","","","","","","","","","","","","","","false","154","-1","D","true","true","defer","[]","false","0","true","2","{""elementary_mathematics"":[""40/50"",""31/50"",""6/7""],""high_school_mathematics"":[""28/51"",""22/50"",""3/6""],""college_mathematics"":[""22/50"",""29/53"",""3/7""]}","{""college_mathematics"":false,""high_school_mathematics"":false,""elementary_mathematics"":false}","You were wrong by yourself on college_mathematics last time. You should outsource this problem to the AI agent","false","null","true","null","null",""
"image-keyboard-response","31","1234090","0.0-4.0-2.8","w8dx01bw9jlapf7","673204494167687dfb6a5747","67b62c430b9240ccd8986e70","67b6317b1d214b09fca7cc5f","1","null","","","null","","","If v is an eigenvector of an invertible matrix A, then which of the following is I are necessarily
true?
I. v is also an eigenvector of 2A.
II. v is also an eigenvector of A^2.
III. v is also an eigenvector of A^(-1).","[""I only"",""II only"",""III only"",""I, II, and III""]","D","B","modiste","","D","100","algLinUCB_0.9","diff-topics","college_mathematics","The following are multiple choice questions about high_school_mathematics.
Colton and his dad bought a gallon of paint that cost $13. They also bought 2 brushes that cost $9 each. What was the total cost, not including tax, of the brushes and the paint they bought?
(A) $22, (B) $24, (C) $31, (D) $35
Answer: C
Solve for y. y – 2 + 3y = 10
(A) 2, (B) 3, (C) 4, (D) 5
Answer: B
Solve 3 over 2 * w = 66.
(A) 33, (B) 44, (C) 88, (D) 99
Answer: B
Write 5.875 as a mixed number or fraction in simplest form.
(A) 5 and 8 over 9, (B) 5 and 7 over 8, (C) 7 over 8, (D) 5 and 87 over 105
Answer: B
Solve the equation 124 = m + 34.
(A) 158, (B) 90, (C) 88, (D) 4,216
Answer: B
Zelma buys p pounds of bananas for 40 cents per pound. She pays the clerk with a twenty-dollar bill. The clerk subtracts the total cost of the bananas from the twenty-dollar bill to determine the amount of change to give Zelma. Which expression represents the amount of change Zelma should receive?
(A) p - 20, (B) 20 - 40p, (C) 20 - 0.40p, (D) 0.40p - 20
Answer: C
Please answer the following question with just the correct option (A, B, C, or D) without any explanation or additional text.
If v is an eigenvector of an invertible matrix A, then which of the following is I are necessarily
true?
I. v is also an eigenvector of 2A.
II. v is also an eigenvector of A^2.
III. v is also an eigenvector of A^(-1).
(A) 'I only', (B) 'II only', (C) 'III only', (D) 'I, II, and III'
Answer:","","","","","","","","","","","","","","","","","","","","","","feedback_imgs/Correct.png"
"call-function","32","1234090","0.0-4.0-0.9","w8dx01bw9jlapf7","673204494167687dfb6a5747","67b62c430b9240ccd8986e70","67b6317b1d214b09fca7cc5f","1","","","","","","defer","In xyz-space, what are the coordinates of the point on the plane 2x + y + 3z = 3 that is closest to the origin?","[""(0, 0, 1)"",""(3/7, 3/14, 9/14)"",""(7/15, 8/15, 1/15)"",""(5/6, 1/3, 1/3)""]","B","D","modiste","","B","111","algLinUCB_0.9","diff-topics","college_mathematics","The following are multiple choice questions about high_school_mathematics.
Colton and his dad bought a gallon of paint that cost $13. They also bought 2 brushes that cost $9 each. What was the total cost, not including tax, of the brushes and the paint they bought?
(A) $22, (B) $24, (C) $31, (D) $35
Answer: C
Solve for y. y – 2 + 3y = 10
(A) 2, (B) 3, (C) 4, (D) 5
Answer: B
Solve 3 over 2 * w = 66.
(A) 33, (B) 44, (C) 88, (D) 99
Answer: B
Write 5.875 as a mixed number or fraction in simplest form.
(A) 5 and 8 over 9, (B) 5 and 7 over 8, (C) 7 over 8, (D) 5 and 87 over 105
Answer: B
Solve the equation 124 = m + 34.
(A) 158, (B) 90, (C) 88, (D) 4,216
Answer: B
Zelma buys p pounds of bananas for 40 cents per pound. She pays the clerk with a twenty-dollar bill. The clerk subtracts the total cost of the bananas from the twenty-dollar bill to determine the amount of change to give Zelma. Which expression represents the amount of change Zelma should receive?
(A) p - 20, (B) 20 - 40p, (C) 20 - 0.40p, (D) 0.40p - 20
Answer: C
Please answer the following question with just the correct option (A, B, C, or D) without any explanation or additional text.
In xyz-space, what are the coordinates of the point on the plane 2x + y + 3z = 3 that is closest to the origin?
(A) '(0, 0, 1)', (B) '(3/7, 3/14, 9/14)', (C) '(7/15, 8/15, 1/15)', (D) '(5/6, 1/3, 1/3)'
Answer:","","","","","","","","","","","","true","2","","","","","","","","",""
"survey-html-form","33","1250961","0.0-4.0-1.9","w8dx01bw9jlapf7","673204494167687dfb6a5747","67b62c430b9240ccd8986e70","67b6317b1d214b09fca7cc5f","1","16870.90000000596","","","{""mcAnswer"":""B""}","","","In xyz-space, what are the coordinates of the point on the plane 2x + y + 3z = 3 that is closest to the origin?","[""(0, 0, 1)"",""(3/7, 3/14, 9/14)"",""(7/15, 8/15, 1/15)"",""(5/6, 1/3, 1/3)""]","B","D","modiste","","B","111","algLinUCB_0.9","diff-topics","college_mathematics","The following are multiple choice questions about high_school_mathematics.
Colton and his dad bought a gallon of paint that cost $13. They also bought 2 brushes that cost $9 each. What was the total cost, not including tax, of the brushes and the paint they bought?
(A) $22, (B) $24, (C) $31, (D) $35
Answer: C
Solve for y. y – 2 + 3y = 10
(A) 2, (B) 3, (C) 4, (D) 5
Answer: B
Solve 3 over 2 * w = 66.
(A) 33, (B) 44, (C) 88, (D) 99
Answer: B
Write 5.875 as a mixed number or fraction in simplest form.
(A) 5 and 8 over 9, (B) 5 and 7 over 8, (C) 7 over 8, (D) 5 and 87 over 105
Answer: B
Solve the equation 124 = m + 34.
(A) 158, (B) 90, (C) 88, (D) 4,216
Answer: B
Zelma buys p pounds of bananas for 40 cents per pound. She pays the clerk with a twenty-dollar bill. The clerk subtracts the total cost of the bananas from the twenty-dollar bill to determine the amount of change to give Zelma. Which expression represents the amount of change Zelma should receive?
(A) p - 20, (B) 20 - 40p, (C) 20 - 0.40p, (D) 0.40p - 20
Answer: C
Please answer the following question with just the correct option (A, B, C, or D) without any explanation or additional text.
In xyz-space, what are the coordinates of the point on the plane 2x + y + 3z = 3 that is closest to the origin?
(A) '(0, 0, 1)', (B) '(3/7, 3/14, 9/14)', (C) '(7/15, 8/15, 1/15)', (D) '(5/6, 1/3, 1/3)'
Answer:","","","","","","","","","","","","","","","","","","","","","",""
"","","","","","","","","","","","","","","","","","","","","","","","","","","","B","","","","","","","","","","","","","","","","","","","","",""
"","","","","","","","","","","","","","","","","","","","","","","","","","","","","false","161","-1","B","true","true","defer","[]","false","0","true","2","{""elementary_mathematics"":[""40/50"",""31/50"",""6/7""],""high_school_mathematics"":[""28/51"",""22/50"",""3/6""],""college_mathematics"":[""22/50"",""30/54"",""3/7""]}","{""college_mathematics"":false,""high_school_mathematics"":false,""elementary_mathematics"":false}","You should outsource this problem to the AI agent","false","null","true","null","null",""
"image-keyboard-response","34","1252462","0.0-4.0-2.9","w8dx01bw9jlapf7","673204494167687dfb6a5747","67b62c430b9240ccd8986e70","67b6317b1d214b09fca7cc5f","1","null","","","null","","","In xyz-space, what are the coordinates of the point on the plane 2x + y + 3z = 3 that is closest to the origin?","[""(0, 0, 1)"",""(3/7, 3/14, 9/14)"",""(7/15, 8/15, 1/15)"",""(5/6, 1/3, 1/3)""]","B","D","modiste","","B","111","algLinUCB_0.9","diff-topics","college_mathematics","The following are multiple choice questions about high_school_mathematics.
Colton and his dad bought a gallon of paint that cost $13. They also bought 2 brushes that cost $9 each. What was the total cost, not including tax, of the brushes and the paint they bought?
(A) $22, (B) $24, (C) $31, (D) $35
Answer: C
Solve for y. y – 2 + 3y = 10
(A) 2, (B) 3, (C) 4, (D) 5
Answer: B
Solve 3 over 2 * w = 66.
(A) 33, (B) 44, (C) 88, (D) 99
Answer: B
Write 5.875 as a mixed number or fraction in simplest form.
(A) 5 and 8 over 9, (B) 5 and 7 over 8, (C) 7 over 8, (D) 5 and 87 over 105
Answer: B
Solve the equation 124 = m + 34.
(A) 158, (B) 90, (C) 88, (D) 4,216
Answer: B
Zelma buys p pounds of bananas for 40 cents per pound. She pays the clerk with a twenty-dollar bill. The clerk subtracts the total cost of the bananas from the twenty-dollar bill to determine the amount of change to give Zelma. Which expression represents the amount of change Zelma should receive?
(A) p - 20, (B) 20 - 40p, (C) 20 - 0.40p, (D) 0.40p - 20
Answer: C
Please answer the following question with just the correct option (A, B, C, or D) without any explanation or additional text.
In xyz-space, what are the coordinates of the point on the plane 2x + y + 3z = 3 that is closest to the origin?
(A) '(0, 0, 1)', (B) '(3/7, 3/14, 9/14)', (C) '(7/15, 8/15, 1/15)', (D) '(5/6, 1/3, 1/3)'
Answer:","","","","","","","","","","","","","","","","","","","","","","feedback_imgs/Correct.png"
"call-function","35","1252462","0.0-4.0-0.10","w8dx01bw9jlapf7","673204494167687dfb6a5747","67b62c430b9240ccd8986e70","67b6317b1d214b09fca7cc5f","1","","","","","","defer","Find the value of 4 ÷ 2 • 2 + 8 − 4.","[""−12"",""12"",""8"",""16""]","C","C","modiste","","C","80","algLinUCB_0.9","diff-topics","elementary_mathematics","The following are multiple choice questions about high_school_mathematics.
Colton and his dad bought a gallon of paint that cost $13. They also bought 2 brushes that cost $9 each. What was the total cost, not including tax, of the brushes and the paint they bought?
(A) $22, (B) $24, (C) $31, (D) $35
Answer: C
Solve for y. y – 2 + 3y = 10
(A) 2, (B) 3, (C) 4, (D) 5
Answer: B
Solve 3 over 2 * w = 66.
(A) 33, (B) 44, (C) 88, (D) 99
Answer: B
Write 5.875 as a mixed number or fraction in simplest form.
(A) 5 and 8 over 9, (B) 5 and 7 over 8, (C) 7 over 8, (D) 5 and 87 over 105
Answer: B
Solve the equation 124 = m + 34.
(A) 158, (B) 90, (C) 88, (D) 4,216
Answer: B
Zelma buys p pounds of bananas for 40 cents per pound. She pays the clerk with a twenty-dollar bill. The clerk subtracts the total cost of the bananas from the twenty-dollar bill to determine the amount of change to give Zelma. Which expression represents the amount of change Zelma should receive?
(A) p - 20, (B) 20 - 40p, (C) 20 - 0.40p, (D) 0.40p - 20
Answer: C
Please answer the following question with just the correct option (A, B, C, or D) without any explanation or additional text.
Find the value of 4 ÷ 2 • 2 + 8 − 4.
(A) '−12', (B) '12', (C) '8', (D) '16'
Answer:","","","","","","","","","","","","","","","","","","","","","",""
"survey-html-form","36","1273346","0.0-4.0-1.10","w8dx01bw9jlapf7","673204494167687dfb6a5747","67b62c430b9240ccd8986e70","67b6317b1d214b09fca7cc5f","1","20882.79999998212","","","{""mcAnswer"":""C""}","","","Find the value of 4 ÷ 2 • 2 + 8 − 4.","[""−12"",""12"",""8"",""16""]","C","C","modiste","","C","80","algLinUCB_0.9","diff-topics","elementary_mathematics","The following are multiple choice questions about high_school_mathematics.
Colton and his dad bought a gallon of paint that cost $13. They also bought 2 brushes that cost $9 each. What was the total cost, not including tax, of the brushes and the paint they bought?
(A) $22, (B) $24, (C) $31, (D) $35
Answer: C
Solve for y. y – 2 + 3y = 10
(A) 2, (B) 3, (C) 4, (D) 5
Answer: B
Solve 3 over 2 * w = 66.
(A) 33, (B) 44, (C) 88, (D) 99
Answer: B
Write 5.875 as a mixed number or fraction in simplest form.
(A) 5 and 8 over 9, (B) 5 and 7 over 8, (C) 7 over 8, (D) 5 and 87 over 105
Answer: B
Solve the equation 124 = m + 34.
(A) 158, (B) 90, (C) 88, (D) 4,216
Answer: B
Zelma buys p pounds of bananas for 40 cents per pound. She pays the clerk with a twenty-dollar bill. The clerk subtracts the total cost of the bananas from the twenty-dollar bill to determine the amount of change to give Zelma. Which expression represents the amount of change Zelma should receive?
(A) p - 20, (B) 20 - 40p, (C) 20 - 0.40p, (D) 0.40p - 20
Answer: C
Please answer the following question with just the correct option (A, B, C, or D) without any explanation or additional text.
Find the value of 4 ÷ 2 • 2 + 8 − 4.
(A) '−12', (B) '12', (C) '8', (D) '16'
Answer:","","","","","","","","","","","","","","","","","","","","","",""
"","","","","","","","","","","","","","","","","","","","","","","","","","","","C","","","","","","","","","","","","","","","","","","","","",""
"","","","","","","","","","","","","","","","","","","","","","","","","","","","","false","171","-1","C","true","true","defer","[]","false","0","false","0","{""elementary_mathematics"":[""40/50"",""31/50"",""7/8""],""high_school_mathematics"":[""28/51"",""22/50"",""3/6""],""college_mathematics"":[""22/50"",""30/54"",""3/7""]}","{""college_mathematics"":false,""high_school_mathematics"":false,""elementary_mathematics"":false}","You should attempt this problem by yourself","null","null","null","null","true",""
"image-keyboard-response","37","1274849","0.0-4.0-2.10","w8dx01bw9jlapf7","673204494167687dfb6a5747","67b62c430b9240ccd8986e70","67b6317b1d214b09fca7cc5f","1","null","","","null","","","Find the value of 4 ÷ 2 • 2 + 8 − 4.","[""−12"",""12"",""8"",""16""]","C","C","modiste","","C","80","algLinUCB_0.9","diff-topics","elementary_mathematics","The following are multiple choice questions about high_school_mathematics.
Colton and his dad bought a gallon of paint that cost $13. They also bought 2 brushes that cost $9 each. What was the total cost, not including tax, of the brushes and the paint they bought?
(A) $22, (B) $24, (C) $31, (D) $35
Answer: C
Solve for y. y – 2 + 3y = 10
(A) 2, (B) 3, (C) 4, (D) 5
Answer: B
Solve 3 over 2 * w = 66.
(A) 33, (B) 44, (C) 88, (D) 99
Answer: B
Write 5.875 as a mixed number or fraction in simplest form.
(A) 5 and 8 over 9, (B) 5 and 7 over 8, (C) 7 over 8, (D) 5 and 87 over 105
Answer: B
Solve the equation 124 = m + 34.
(A) 158, (B) 90, (C) 88, (D) 4,216
Answer: B
Zelma buys p pounds of bananas for 40 cents per pound. She pays the clerk with a twenty-dollar bill. The clerk subtracts the total cost of the bananas from the twenty-dollar bill to determine the amount of change to give Zelma. Which expression represents the amount of change Zelma should receive?
(A) p - 20, (B) 20 - 40p, (C) 20 - 0.40p, (D) 0.40p - 20
Answer: C
Please answer the following question with just the correct option (A, B, C, or D) without any explanation or additional text.
Find the value of 4 ÷ 2 • 2 + 8 − 4.
(A) '−12', (B) '12', (C) '8', (D) '16'
Answer:","","","","","","","","","","","","","","","","","","","","","","feedback_imgs/Correct.png"
"call-function","38","1274849","0.0-4.0-0.11","w8dx01bw9jlapf7","673204494167687dfb6a5747","67b62c430b9240ccd8986e70","67b6317b1d214b09fca7cc5f","1","","","","","","defer","Write 8 and 2 over 4 as an improper fraction in simplest form.","[""17 over 2"",""34 over 4"",""17 over 4"",""19 over 2""]","B","A","modiste","","A","92","algLinUCB_0.9","diff-topics","elementary_mathematics","The following are multiple choice questions about high_school_mathematics.
Colton and his dad bought a gallon of paint that cost $13. They also bought 2 brushes that cost $9 each. What was the total cost, not including tax, of the brushes and the paint they bought?
(A) $22, (B) $24, (C) $31, (D) $35
Answer: C
Solve for y. y – 2 + 3y = 10
(A) 2, (B) 3, (C) 4, (D) 5
Answer: B
Solve 3 over 2 * w = 66.
(A) 33, (B) 44, (C) 88, (D) 99
Answer: B
Write 5.875 as a mixed number or fraction in simplest form.
(A) 5 and 8 over 9, (B) 5 and 7 over 8, (C) 7 over 8, (D) 5 and 87 over 105
Answer: B
Solve the equation 124 = m + 34.
(A) 158, (B) 90, (C) 88, (D) 4,216
Answer: B
Zelma buys p pounds of bananas for 40 cents per pound. She pays the clerk with a twenty-dollar bill. The clerk subtracts the total cost of the bananas from the twenty-dollar bill to determine the amount of change to give Zelma. Which expression represents the amount of change Zelma should receive?
(A) p - 20, (B) 20 - 40p, (C) 20 - 0.40p, (D) 0.40p - 20
Answer: C
Please answer the following question with just the correct option (A, B, C, or D) without any explanation or additional text.
Write 8 and 2 over 4 as an improper fraction in simplest form.
(A) '17 over 2', (B) '34 over 4', (C) '17 over 4', (D) '19 over 2'
Answer:","","","","","","","","","","","","","","","","","","","","","",""
"survey-html-form","39","1299111","0.0-4.0-1.11","w8dx01bw9jlapf7","673204494167687dfb6a5747","67b62c430b9240ccd8986e70","67b6317b1d214b09fca7cc5f","1","24261.29999998212","","","{""mcAnswer"":""A""}","","","Write 8 and 2 over 4 as an improper fraction in simplest form.","[""17 over 2"",""34 over 4"",""17 over 4"",""19 over 2""]","B","A","modiste","","A","92","algLinUCB_0.9","diff-topics","elementary_mathematics","The following are multiple choice questions about high_school_mathematics.
Colton and his dad bought a gallon of paint that cost $13. They also bought 2 brushes that cost $9 each. What was the total cost, not including tax, of the brushes and the paint they bought?
(A) $22, (B) $24, (C) $31, (D) $35
Answer: C
Solve for y. y – 2 + 3y = 10
(A) 2, (B) 3, (C) 4, (D) 5
Answer: B
Solve 3 over 2 * w = 66.
(A) 33, (B) 44, (C) 88, (D) 99
Answer: B
Write 5.875 as a mixed number or fraction in simplest form.
(A) 5 and 8 over 9, (B) 5 and 7 over 8, (C) 7 over 8, (D) 5 and 87 over 105
Answer: B
Solve the equation 124 = m + 34.
(A) 158, (B) 90, (C) 88, (D) 4,216
Answer: B
Zelma buys p pounds of bananas for 40 cents per pound. She pays the clerk with a twenty-dollar bill. The clerk subtracts the total cost of the bananas from the twenty-dollar bill to determine the amount of change to give Zelma. Which expression represents the amount of change Zelma should receive?
(A) p - 20, (B) 20 - 40p, (C) 20 - 0.40p, (D) 0.40p - 20
Answer: C
Please answer the following question with just the correct option (A, B, C, or D) without any explanation or additional text.
Write 8 and 2 over 4 as an improper fraction in simplest form.
(A) '17 over 2', (B) '34 over 4', (C) '17 over 4', (D) '19 over 2'
Answer:","","","","","","","","","","","","","","","","","","","","","",""
"","","","","","","","","","","","","","","","","","","","","","","","","","","","A","","","","","","","","","","","","","","","","","","","","",""
"","","","","","","","","","","","","","","","","","","","","","","","","","","","","false","181","-1","B","true","false","defer","[]","false","0","false","0","{""elementary_mathematics"":[""40/50"",""31/50"",""8/9""],""high_school_mathematics"":[""28/51"",""22/50"",""3/6""],""college_mathematics"":[""22/50"",""30/54"",""3/7""]}","{""college_mathematics"":false,""high_school_mathematics"":false,""elementary_mathematics"":false}","You should attempt this problem by yourself","null","null","null","null","true",""
"image-keyboard-response","40","1300614","0.0-4.0-2.11","w8dx01bw9jlapf7","673204494167687dfb6a5747","67b62c430b9240ccd8986e70","67b6317b1d214b09fca7cc5f","1","null","","","null","","","Write 8 and 2 over 4 as an improper fraction in simplest form.","[""17 over 2"",""34 over 4"",""17 over 4"",""19 over 2""]","B","A","modiste","","A","92","algLinUCB_0.9","diff-topics","elementary_mathematics","The following are multiple choice questions about high_school_mathematics.
Colton and his dad bought a gallon of paint that cost $13. They also bought 2 brushes that cost $9 each. What was the total cost, not including tax, of the brushes and the paint they bought?
(A) $22, (B) $24, (C) $31, (D) $35
Answer: C
Solve for y. y – 2 + 3y = 10
(A) 2, (B) 3, (C) 4, (D) 5
Answer: B
Solve 3 over 2 * w = 66.
(A) 33, (B) 44, (C) 88, (D) 99
Answer: B
Write 5.875 as a mixed number or fraction in simplest form.
(A) 5 and 8 over 9, (B) 5 and 7 over 8, (C) 7 over 8, (D) 5 and 87 over 105
Answer: B
Solve the equation 124 = m + 34.
(A) 158, (B) 90, (C) 88, (D) 4,216
Answer: B
Zelma buys p pounds of bananas for 40 cents per pound. She pays the clerk with a twenty-dollar bill. The clerk subtracts the total cost of the bananas from the twenty-dollar bill to determine the amount of change to give Zelma. Which expression represents the amount of change Zelma should receive?
(A) p - 20, (B) 20 - 40p, (C) 20 - 0.40p, (D) 0.40p - 20
Answer: C
Please answer the following question with just the correct option (A, B, C, or D) without any explanation or additional text.
Write 8 and 2 over 4 as an improper fraction in simplest form.
(A) '17 over 2', (B) '34 over 4', (C) '17 over 4', (D) '19 over 2'
Answer:","","","","","","","","","","","","","","","","","","","","","","feedback_imgs/Correct.png"
"call-function","41","1300614","0.0-4.0-0.12","w8dx01bw9jlapf7","673204494167687dfb6a5747","67b62c430b9240ccd8986e70","67b6317b1d214b09fca7cc5f","1","","","","","","defer","In parallelogram ABCD, angle B measures 110^circ. What is the number of degrees in the measure of angle C?","[""145"",""90"",""60"",""70""]","A","D","modiste","","D","71","algLinUCB_0.9","diff-topics","high_school_mathematics","The following are multiple choice questions about high_school_mathematics.
Colton and his dad bought a gallon of paint that cost $13. They also bought 2 brushes that cost $9 each. What was the total cost, not including tax, of the brushes and the paint they bought?
(A) $22, (B) $24, (C) $31, (D) $35
Answer: C
Solve for y. y – 2 + 3y = 10
(A) 2, (B) 3, (C) 4, (D) 5
Answer: B
Solve 3 over 2 * w = 66.
(A) 33, (B) 44, (C) 88, (D) 99
Answer: B
Write 5.875 as a mixed number or fraction in simplest form.
(A) 5 and 8 over 9, (B) 5 and 7 over 8, (C) 7 over 8, (D) 5 and 87 over 105
Answer: B
Solve the equation 124 = m + 34.
(A) 158, (B) 90, (C) 88, (D) 4,216
Answer: B
Zelma buys p pounds of bananas for 40 cents per pound. She pays the clerk with a twenty-dollar bill. The clerk subtracts the total cost of the bananas from the twenty-dollar bill to determine the amount of change to give Zelma. Which expression represents the amount of change Zelma should receive?
(A) p - 20, (B) 20 - 40p, (C) 20 - 0.40p, (D) 0.40p - 20
Answer: C
Please answer the following question with just the correct option (A, B, C, or D) without any explanation or additional text.
In parallelogram ABCD, angle B measures 110^circ. What is the number of degrees in the measure of angle C?
(A) '145', (B) '90', (C) '60', (D) '70'
Answer:","","","","","","","","","","","","","","","","","","","","","",""
"survey-html-form","42","1321581","0.0-4.0-1.12","w8dx01bw9jlapf7","673204494167687dfb6a5747","67b62c430b9240ccd8986e70","67b6317b1d214b09fca7cc5f","1","20965.90000000596","","","{""mcAnswer"":""D""}","","","In parallelogram ABCD, angle B measures 110^circ. What is the number of degrees in the measure of angle C?","[""145"",""90"",""60"",""70""]","A","D","modiste","","D","71","algLinUCB_0.9","diff-topics","high_school_mathematics","The following are multiple choice questions about high_school_mathematics.
Colton and his dad bought a gallon of paint that cost $13. They also bought 2 brushes that cost $9 each. What was the total cost, not including tax, of the brushes and the paint they bought?
(A) $22, (B) $24, (C) $31, (D) $35
Answer: C
Solve for y. y – 2 + 3y = 10
(A) 2, (B) 3, (C) 4, (D) 5
Answer: B
Solve 3 over 2 * w = 66.
(A) 33, (B) 44, (C) 88, (D) 99
Answer: B
Write 5.875 as a mixed number or fraction in simplest form.
(A) 5 and 8 over 9, (B) 5 and 7 over 8, (C) 7 over 8, (D) 5 and 87 over 105
Answer: B
Solve the equation 124 = m + 34.
(A) 158, (B) 90, (C) 88, (D) 4,216
Answer: B
Zelma buys p pounds of bananas for 40 cents per pound. She pays the clerk with a twenty-dollar bill. The clerk subtracts the total cost of the bananas from the twenty-dollar bill to determine the amount of change to give Zelma. Which expression represents the amount of change Zelma should receive?
(A) p - 20, (B) 20 - 40p, (C) 20 - 0.40p, (D) 0.40p - 20
Answer: C
Please answer the following question with just the correct option (A, B, C, or D) without any explanation or additional text.
In parallelogram ABCD, angle B measures 110^circ. What is the number of degrees in the measure of angle C?
(A) '145', (B) '90', (C) '60', (D) '70'
Answer:","","","","","","","","","","","","","","","","","","","","","",""
"","","","","","","","","","","","","","","","","","","","","","","","","","","","D","","","","","","","","","","","","","","","","","","","","",""
"","","","","","","","","","","","","","","","","","","","","","","","","","","","","false","191","-1","A","true","false","defer","[]","false","0","false","0","{""elementary_mathematics"":[""40/50"",""31/50"",""8/9""],""high_school_mathematics"":[""28/51"",""22/50"",""4/7""],""college_mathematics"":[""22/50"",""30/54"",""3/7""]}","{""college_mathematics"":false,""high_school_mathematics"":false,""elementary_mathematics"":false}","You should outsource this problem to a human agent","null","null","null","false","null",""
"image-keyboard-response","43","1323082","0.0-4.0-2.12","w8dx01bw9jlapf7","673204494167687dfb6a5747","67b62c430b9240ccd8986e70","67b6317b1d214b09fca7cc5f","1","null","","","null","","","In parallelogram ABCD, angle B measures 110^circ. What is the number of degrees in the measure of angle C?","[""145"",""90"",""60"",""70""]","A","D","modiste","","D","71","algLinUCB_0.9","diff-topics","high_school_mathematics","The following are multiple choice questions about high_school_mathematics.
Colton and his dad bought a gallon of paint that cost $13. They also bought 2 brushes that cost $9 each. What was the total cost, not including tax, of the brushes and the paint they bought?
(A) $22, (B) $24, (C) $31, (D) $35
Answer: C
Solve for y. y – 2 + 3y = 10
(A) 2, (B) 3, (C) 4, (D) 5
Answer: B
Solve 3 over 2 * w = 66.
(A) 33, (B) 44, (C) 88, (D) 99
Answer: B
Write 5.875 as a mixed number or fraction in simplest form.
(A) 5 and 8 over 9, (B) 5 and 7 over 8, (C) 7 over 8, (D) 5 and 87 over 105
Answer: B
Solve the equation 124 = m + 34.
(A) 158, (B) 90, (C) 88, (D) 4,216
Answer: B
Zelma buys p pounds of bananas for 40 cents per pound. She pays the clerk with a twenty-dollar bill. The clerk subtracts the total cost of the bananas from the twenty-dollar bill to determine the amount of change to give Zelma. Which expression represents the amount of change Zelma should receive?
(A) p - 20, (B) 20 - 40p, (C) 20 - 0.40p, (D) 0.40p - 20
Answer: C
Please answer the following question with just the correct option (A, B, C, or D) without any explanation or additional text.
In parallelogram ABCD, angle B measures 110^circ. What is the number of degrees in the measure of angle C?
(A) '145', (B) '90', (C) '60', (D) '70'
Answer:","","","","","","","","","","","","","","","","","","","","","","feedback_imgs/Correct.png"
"call-function","44","1323082","0.0-4.0-0.13","w8dx01bw9jlapf7","673204494167687dfb6a5747","67b62c430b9240ccd8986e70","67b6317b1d214b09fca7cc5f","1","","","","","","defer","What is the greatest possible area of a triangular region with one vertex at the center of a circle of radius 1 and the other two vertices on the circle?","[""1/2"",""1"",""sqrt(2)"",""pi""]","B","B","modiste","","A","107","algLinUCB_0.9","diff-topics","college_mathematics","The following are multiple choice questions about high_school_mathematics.
Colton and his dad bought a gallon of paint that cost $13. They also bought 2 brushes that cost $9 each. What was the total cost, not including tax, of the brushes and the paint they bought?
(A) $22, (B) $24, (C) $31, (D) $35
Answer: C
Solve for y. y – 2 + 3y = 10
(A) 2, (B) 3, (C) 4, (D) 5
Answer: B
Solve 3 over 2 * w = 66.
(A) 33, (B) 44, (C) 88, (D) 99
Answer: B
Write 5.875 as a mixed number or fraction in simplest form.
(A) 5 and 8 over 9, (B) 5 and 7 over 8, (C) 7 over 8, (D) 5 and 87 over 105
Answer: B
Solve the equation 124 = m + 34.
(A) 158, (B) 90, (C) 88, (D) 4,216
Answer: B
Zelma buys p pounds of bananas for 40 cents per pound. She pays the clerk with a twenty-dollar bill. The clerk subtracts the total cost of the bananas from the twenty-dollar bill to determine the amount of change to give Zelma. Which expression represents the amount of change Zelma should receive?
(A) p - 20, (B) 20 - 40p, (C) 20 - 0.40p, (D) 0.40p - 20
Answer: C
Please answer the following question with just the correct option (A, B, C, or D) without any explanation or additional text.
What is the greatest possible area of a triangular region with one vertex at the center of a circle of radius 1 and the other two vertices on the circle?
(A) '1/2', (B) '1', (C) 'sqrt(2)', (D) 'pi'
Answer:","","","","","","","","","","","","","","","","","","","","","",""
"survey-html-form","45","1357498","0.0-4.0-1.13","w8dx01bw9jlapf7","673204494167687dfb6a5747","67b62c430b9240ccd8986e70","67b6317b1d214b09fca7cc5f","1","34414.80000001192","","","{""mcAnswer"":""A""}","","","What is the greatest possible area of a triangular region with one vertex at the center of a circle of radius 1 and the other two vertices on the circle?","[""1/2"",""1"",""sqrt(2)"",""pi""]","B","B","modiste","","A","107","algLinUCB_0.9","diff-topics","college_mathematics","The following are multiple choice questions about high_school_mathematics.
Colton and his dad bought a gallon of paint that cost $13. They also bought 2 brushes that cost $9 each. What was the total cost, not including tax, of the brushes and the paint they bought?
(A) $22, (B) $24, (C) $31, (D) $35
Answer: C
Solve for y. y – 2 + 3y = 10
(A) 2, (B) 3, (C) 4, (D) 5
Answer: B
Solve 3 over 2 * w = 66.
(A) 33, (B) 44, (C) 88, (D) 99
Answer: B
Write 5.875 as a mixed number or fraction in simplest form.
(A) 5 and 8 over 9, (B) 5 and 7 over 8, (C) 7 over 8, (D) 5 and 87 over 105
Answer: B
Solve the equation 124 = m + 34.
(A) 158, (B) 90, (C) 88, (D) 4,216
Answer: B
Zelma buys p pounds of bananas for 40 cents per pound. She pays the clerk with a twenty-dollar bill. The clerk subtracts the total cost of the bananas from the twenty-dollar bill to determine the amount of change to give Zelma. Which expression represents the amount of change Zelma should receive?
(A) p - 20, (B) 20 - 40p, (C) 20 - 0.40p, (D) 0.40p - 20
Answer: C
Please answer the following question with just the correct option (A, B, C, or D) without any explanation or additional text.
What is the greatest possible area of a triangular region with one vertex at the center of a circle of radius 1 and the other two vertices on the circle?
(A) '1/2', (B) '1', (C) 'sqrt(2)', (D) 'pi'
Answer:","","","","","","","","","","","","","","","","","","","","","",""
"","","","","","","","","","","","","","","","","","","","","","","","","","","","A","","","","","","","","","","","","","","","","","","","","",""
"","","","","","","","","","","","","","","","","","","","","","","","","","","","","false","201","-1","B","true","false","defer","[]","false","0","false","0","{""elementary_mathematics"":[""40/50"",""31/50"",""8/9""],""high_school_mathematics"":[""28/51"",""22/50"",""4/7""],""college_mathematics"":[""22/50"",""30/54"",""4/8""]}","{""college_mathematics"":false,""high_school_mathematics"":false,""elementary_mathematics"":false}","You should outsource this problem to the AI agent","null","null","false","null","null",""
"image-keyboard-response","46","1359003","0.0-4.0-2.13","w8dx01bw9jlapf7","673204494167687dfb6a5747","67b62c430b9240ccd8986e70","67b6317b1d214b09fca7cc5f","1","null","","","null","","","What is the greatest possible area of a triangular region with one vertex at the center of a circle of radius 1 and the other two vertices on the circle?","[""1/2"",""1"",""sqrt(2)"",""pi""]","B","B","modiste","","A","107","algLinUCB_0.9","diff-topics","college_mathematics","The following are multiple choice questions about high_school_mathematics.
Colton and his dad bought a gallon of paint that cost $13. They also bought 2 brushes that cost $9 each. What was the total cost, not including tax, of the brushes and the paint they bought?
(A) $22, (B) $24, (C) $31, (D) $35
Answer: C
Solve for y. y – 2 + 3y = 10
(A) 2, (B) 3, (C) 4, (D) 5
Answer: B
Solve 3 over 2 * w = 66.
(A) 33, (B) 44, (C) 88, (D) 99
Answer: B
Write 5.875 as a mixed number or fraction in simplest form.
(A) 5 and 8 over 9, (B) 5 and 7 over 8, (C) 7 over 8, (D) 5 and 87 over 105
Answer: B
Solve the equation 124 = m + 34.
(A) 158, (B) 90, (C) 88, (D) 4,216
Answer: B
Zelma buys p pounds of bananas for 40 cents per pound. She pays the clerk with a twenty-dollar bill. The clerk subtracts the total cost of the bananas from the twenty-dollar bill to determine the amount of change to give Zelma. Which expression represents the amount of change Zelma should receive?
(A) p - 20, (B) 20 - 40p, (C) 20 - 0.40p, (D) 0.40p - 20
Answer: C
Please answer the following question with just the correct option (A, B, C, or D) without any explanation or additional text.
What is the greatest possible area of a triangular region with one vertex at the center of a circle of radius 1 and the other two vertices on the circle?
(A) '1/2', (B) '1', (C) 'sqrt(2)', (D) 'pi'
Answer:","","","","","","","","","","","","","","","","","","","","","","feedback_imgs/Correct.png"
"call-function","47","1359003","0.0-4.0-0.14","w8dx01bw9jlapf7","673204494167687dfb6a5747","67b62c430b9240ccd8986e70","67b6317b1d214b09fca7cc5f","1","","","","","","defer","What is the shortest distance from the origin to the circle defined by x^2-24x +y^2+10y +160=0?","[""10"",""16"",""24"",""12""]","D","A","modiste","","A","76","algLinUCB_0.9","diff-topics","high_school_mathematics","The following are multiple choice questions about high_school_mathematics.
Colton and his dad bought a gallon of paint that cost $13. They also bought 2 brushes that cost $9 each. What was the total cost, not including tax, of the brushes and the paint they bought?
(A) $22, (B) $24, (C) $31, (D) $35
Answer: C
Solve for y. y – 2 + 3y = 10
(A) 2, (B) 3, (C) 4, (D) 5
Answer: B
Solve 3 over 2 * w = 66.
(A) 33, (B) 44, (C) 88, (D) 99
Answer: B
Write 5.875 as a mixed number or fraction in simplest form.
(A) 5 and 8 over 9, (B) 5 and 7 over 8, (C) 7 over 8, (D) 5 and 87 over 105
Answer: B
Solve the equation 124 = m + 34.
(A) 158, (B) 90, (C) 88, (D) 4,216
Answer: B
Zelma buys p pounds of bananas for 40 cents per pound. She pays the clerk with a twenty-dollar bill. The clerk subtracts the total cost of the bananas from the twenty-dollar bill to determine the amount of change to give Zelma. Which expression represents the amount of change Zelma should receive?
(A) p - 20, (B) 20 - 40p, (C) 20 - 0.40p, (D) 0.40p - 20
Answer: C
Please answer the following question with just the correct option (A, B, C, or D) without any explanation or additional text.
What is the shortest distance from the origin to the circle defined by x^2-24x +y^2+10y +160=0?
(A) '10', (B) '16', (C) '24', (D) '12'
Answer:","","","","","","","","","","","","","","","","","","","","","",""
"survey-html-form","48","1427809","0.0-4.0-1.14","w8dx01bw9jlapf7","673204494167687dfb6a5747","67b62c430b9240ccd8986e70","67b6317b1d214b09fca7cc5f","1","68805.09999999404","","","{""mcAnswer"":""A""}","","","What is the shortest distance from the origin to the circle defined by x^2-24x +y^2+10y +160=0?","[""10"",""16"",""24"",""12""]","D","A","modiste","","A","76","algLinUCB_0.9","diff-topics","high_school_mathematics","The following are multiple choice questions about high_school_mathematics.
Colton and his dad bought a gallon of paint that cost $13. They also bought 2 brushes that cost $9 each. What was the total cost, not including tax, of the brushes and the paint they bought?
(A) $22, (B) $24, (C) $31, (D) $35
Answer: C
Solve for y. y – 2 + 3y = 10
(A) 2, (B) 3, (C) 4, (D) 5
Answer: B
Solve 3 over 2 * w = 66.
(A) 33, (B) 44, (C) 88, (D) 99
Answer: B
Write 5.875 as a mixed number or fraction in simplest form.
(A) 5 and 8 over 9, (B) 5 and 7 over 8, (C) 7 over 8, (D) 5 and 87 over 105
Answer: B
Solve the equation 124 = m + 34.
(A) 158, (B) 90, (C) 88, (D) 4,216
Answer: B
Zelma buys p pounds of bananas for 40 cents per pound. She pays the clerk with a twenty-dollar bill. The clerk subtracts the total cost of the bananas from the twenty-dollar bill to determine the amount of change to give Zelma. Which expression represents the amount of change Zelma should receive?
(A) p - 20, (B) 20 - 40p, (C) 20 - 0.40p, (D) 0.40p - 20
Answer: C
Please answer the following question with just the correct option (A, B, C, or D) without any explanation or additional text.
What is the shortest distance from the origin to the circle defined by x^2-24x +y^2+10y +160=0?
(A) '10', (B) '16', (C) '24', (D) '12'
Answer:","","","","","","","","","","","","","","","","","","","","","",""
"","","","","","","","","","","","","","","","","","","","","","","","","","","","A","","","","","","","","","","","","","","","","","","","","",""
"","","","","","","","","","","","","","","","","","","","","","","","","","","","","false","211","-1","D","true","false","defer","[]","false","0","false","0","{""elementary_mathematics"":[""40/50"",""31/50"",""8/9""],""high_school_mathematics"":[""28/51"",""22/50"",""5/8""],""college_mathematics"":[""22/50"",""30/54"",""4/8""]}","{""college_mathematics"":false,""high_school_mathematics"":false,""elementary_mathematics"":false}","You should attempt this problem by yourself","null","null","null","null","true",""
"image-keyboard-response","49","1429311","0.0-4.0-2.14","w8dx01bw9jlapf7","673204494167687dfb6a5747","67b62c430b9240ccd8986e70","67b6317b1d214b09fca7cc5f","1","null","","","null","","","What is the shortest distance from the origin to the circle defined by x^2-24x +y^2+10y +160=0?","[""10"",""16"",""24"",""12""]","D","A","modiste","","A","76","algLinUCB_0.9","diff-topics","high_school_mathematics","The following are multiple choice questions about high_school_mathematics.
Colton and his dad bought a gallon of paint that cost $13. They also bought 2 brushes that cost $9 each. What was the total cost, not including tax, of the brushes and the paint they bought?
(A) $22, (B) $24, (C) $31, (D) $35
Answer: C
Solve for y. y – 2 + 3y = 10
(A) 2, (B) 3, (C) 4, (D) 5
Answer: B
Solve 3 over 2 * w = 66.
(A) 33, (B) 44, (C) 88, (D) 99
Answer: B
Write 5.875 as a mixed number or fraction in simplest form.
(A) 5 and 8 over 9, (B) 5 and 7 over 8, (C) 7 over 8, (D) 5 and 87 over 105
Answer: B
Solve the equation 124 = m + 34.
(A) 158, (B) 90, (C) 88, (D) 4,216
Answer: B
Zelma buys p pounds of bananas for 40 cents per pound. She pays the clerk with a twenty-dollar bill. The clerk subtracts the total cost of the bananas from the twenty-dollar bill to determine the amount of change to give Zelma. Which expression represents the amount of change Zelma should receive?
(A) p - 20, (B) 20 - 40p, (C) 20 - 0.40p, (D) 0.40p - 20
Answer: C
Please answer the following question with just the correct option (A, B, C, or D) without any explanation or additional text.
What is the shortest distance from the origin to the circle defined by x^2-24x +y^2+10y +160=0?
(A) '10', (B) '16', (C) '24', (D) '12'
Answer:","","","","","","","","","","","","","","","","","","","","","","feedback_imgs/Correct.png"
"call-function","50","1429311","0.0-4.0-0.15","w8dx01bw9jlapf7","673204494167687dfb6a5747","67b62c430b9240ccd8986e70","67b6317b1d214b09fca7cc5f","1","","","","","","defer","−4 +  ( −3 )=","[""−7"",""−1"",""1"",""7""]","A","A","modiste","","A","82","algLinUCB_0.9","diff-topics","elementary_mathematics","The following are multiple choice questions about high_school_mathematics.
