"trial_type","trial_index","time_elapsed","internal_node_id","subject","prolific_id","study_id","session_id","condition","rt","url","view_history","response","question_order","value","question","options","llm_answer","population_answer","task","subj_id","label","example_id","variant","main_variant","topic","prompt","0","btn_clicked","score","timeToClick","modelPred","humanCorrect","modelCorrect","interfaceType","modelPredDist","human_support_used","human_support_clicks","llm_support_used","llm_support_clicks","recommendation_lists","incorrect_answers_by_category","recommendation","LLM_outsourcing_overridden","human_outsourcing_overridden","ai_orch_agreement","human_orch_agreement","self_orch_agreement","stimulus"
"pavlovia","0","2978","0.0-0.0","my9o4yokqh4jlbv","65cb7d52b59b7dd58392e0ba","67b62c430b9240ccd8986e70","67b647045c318b0897589a97","0","","","","","","","","","","","","","","","","","","","","","","","","","","","","","","","","","","","","","","","",""
"external-html","1","74281","0.0-1.0","my9o4yokqh4jlbv","65cb7d52b59b7dd58392e0ba","67b62c430b9240ccd8986e70","67b647045c318b0897589a97","0","70896.40000009537","consent.html","","","","","","","","","","","","","","","","","","","","","","","","","","","","","","","","","","","","","",""
"instructions","2","173184","0.0-2.0-0.0","my9o4yokqh4jlbv","65cb7d52b59b7dd58392e0ba","67b62c430b9240ccd8986e70","67b647045c318b0897589a97","0","98901.5","","[{""page_index"":0,""viewing_time"":11935.100000143051},{""page_index"":1,""viewing_time"":12952.899999856949},{""page_index"":0,""viewing_time"":3683.300000190735},{""page_index"":1,""viewing_time"":17101.5},{""page_index"":2,""viewing_time"":8465.399999856949},{""page_index"":3,""viewing_time"":13864},{""page_index"":4,""viewing_time"":10695.900000095367},{""page_index"":5,""viewing_time"":11028.700000047684},{""page_index"":6,""viewing_time"":1963.5},{""page_index"":7,""viewing_time"":7210}]","","","","","","","","","","","","","","","","","","","","","","","","","","","","","","","","","","","","",""
"survey-multi-choice","3","188713","0.0-2.0-1.0","my9o4yokqh4jlbv","65cb7d52b59b7dd58392e0ba","67b62c430b9240ccd8986e70","67b647045c318b0897589a97","0","15522.299999952316","","","{""Q0"":""The answer to a mutliple choice question."",""Q1"":""Clicking on a radio button.""}","[0,1]","","","","","","","","","","","","","","","","","","","","","","","","","","","","","","","","","","",""
"instructions","4","215992","0.0-3.0","my9o4yokqh4jlbv","65cb7d52b59b7dd58392e0ba","67b62c430b9240ccd8986e70","67b647045c318b0897589a97","0","27276.799999952316","","[{""page_index"":0,""viewing_time"":27276.200000047684}]","","","","","","","","","","","","","","","","","","","","","","","","","","","","","","","","","","","","",""
"call-function","5","215994","0.0-4.0-0.0","my9o4yokqh4jlbv","65cb7d52b59b7dd58392e0ba","67b62c430b9240ccd8986e70","67b647045c318b0897589a97","0","","","","","","defer","The variable x varies directly as the square of y, and y varies directly as the cube of z. If x equals -16 when z equals 2, what is the value of x when z equals 1/2?","[""-1"",""16"",""-1/256"",""1/16""]","C","C","modiste","","C","2","algLinUCB_0.9","diff-topics","high_school_mathematics","The following are multiple choice questions about high_school_mathematics.
Colton and his dad bought a gallon of paint that cost $13. They also bought 2 brushes that cost $9 each. What was the total cost, not including tax, of the brushes and the paint they bought?
(A) $22, (B) $24, (C) $31, (D) $35
Answer: C
Solve for y. y – 2 + 3y = 10
(A) 2, (B) 3, (C) 4, (D) 5
Answer: B
Solve 3 over 2 * w = 66.
(A) 33, (B) 44, (C) 88, (D) 99
Answer: B
Write 5.875 as a mixed number or fraction in simplest form.
(A) 5 and 8 over 9, (B) 5 and 7 over 8, (C) 7 over 8, (D) 5 and 87 over 105
Answer: B
Solve the equation 124 = m + 34.
(A) 158, (B) 90, (C) 88, (D) 4,216
Answer: B
Zelma buys p pounds of bananas for 40 cents per pound. She pays the clerk with a twenty-dollar bill. The clerk subtracts the total cost of the bananas from the twenty-dollar bill to determine the amount of change to give Zelma. Which expression represents the amount of change Zelma should receive?
(A) p - 20, (B) 20 - 40p, (C) 20 - 0.40p, (D) 0.40p - 20
Answer: C
Please answer the following question with just the correct option (A, B, C, or D) without any explanation or additional text.
The variable x varies directly as the square of y, and y varies directly as the cube of z. If x equals -16 when z equals 2, what is the value of x when z equals 1/2?
(A) '-1', (B) '16', (C) '-1/256', (D) '1/16'
Answer:","","","","","","","","","","","","","","","","","","","","","",""
"survey-html-form","6","379964","0.0-4.0-1.0","my9o4yokqh4jlbv","65cb7d52b59b7dd58392e0ba","67b62c430b9240ccd8986e70","67b647045c318b0897589a97","0","163963.79999995232","","","{""mcAnswer"":""C""}","","","The variable x varies directly as the square of y, and y varies directly as the cube of z. If x equals -16 when z equals 2, what is the value of x when z equals 1/2?","[""-1"",""16"",""-1/256"",""1/16""]","C","C","modiste","","C","2","algLinUCB_0.9","diff-topics","high_school_mathematics","The following are multiple choice questions about high_school_mathematics.
Colton and his dad bought a gallon of paint that cost $13. They also bought 2 brushes that cost $9 each. What was the total cost, not including tax, of the brushes and the paint they bought?
(A) $22, (B) $24, (C) $31, (D) $35
Answer: C
Solve for y. y – 2 + 3y = 10
(A) 2, (B) 3, (C) 4, (D) 5
Answer: B
Solve 3 over 2 * w = 66.
(A) 33, (B) 44, (C) 88, (D) 99
Answer: B
Write 5.875 as a mixed number or fraction in simplest form.
(A) 5 and 8 over 9, (B) 5 and 7 over 8, (C) 7 over 8, (D) 5 and 87 over 105
Answer: B
Solve the equation 124 = m + 34.
(A) 158, (B) 90, (C) 88, (D) 4,216
Answer: B
Zelma buys p pounds of bananas for 40 cents per pound. She pays the clerk with a twenty-dollar bill. The clerk subtracts the total cost of the bananas from the twenty-dollar bill to determine the amount of change to give Zelma. Which expression represents the amount of change Zelma should receive?
(A) p - 20, (B) 20 - 40p, (C) 20 - 0.40p, (D) 0.40p - 20
Answer: C
Please answer the following question with just the correct option (A, B, C, or D) without any explanation or additional text.
The variable x varies directly as the square of y, and y varies directly as the cube of z. If x equals -16 when z equals 2, what is the value of x when z equals 1/2?
(A) '-1', (B) '16', (C) '-1/256', (D) '1/16'
Answer:","","","","","","","","","","","","","","","","","","","","","",""
"","","","","","","","","","","","","","","","","","","","","","","","","","","","C","","","","","","","","","","","","","","","","","","","","",""
"","","","","","","","","","","","","","","","","","","","","","","","","","","","","false","110","-1","C","true","true","defer","[]","false","0","false","0","{""elementary_mathematics"":[""40/50"",""31/50"",""4 / 5""],""high_school_mathematics"":[""27/50"",""22/50"",""4/6""],""college_mathematics"":[""22/50"",""26/50"",""2 / 5""]}","{""high_school_mathematics"":false}","You should attempt this problem by yourself","null","null","null","null","true",""
"image-keyboard-response","7","381484","0.0-4.0-2.0","my9o4yokqh4jlbv","65cb7d52b59b7dd58392e0ba","67b62c430b9240ccd8986e70","67b647045c318b0897589a97","0","null","","","null","","","The variable x varies directly as the square of y, and y varies directly as the cube of z. If x equals -16 when z equals 2, what is the value of x when z equals 1/2?","[""-1"",""16"",""-1/256"",""1/16""]","C","C","modiste","","C","2","algLinUCB_0.9","diff-topics","high_school_mathematics","The following are multiple choice questions about high_school_mathematics.
Colton and his dad bought a gallon of paint that cost $13. They also bought 2 brushes that cost $9 each. What was the total cost, not including tax, of the brushes and the paint they bought?
(A) $22, (B) $24, (C) $31, (D) $35
Answer: C
Solve for y. y – 2 + 3y = 10
(A) 2, (B) 3, (C) 4, (D) 5
Answer: B
Solve 3 over 2 * w = 66.
(A) 33, (B) 44, (C) 88, (D) 99
Answer: B
Write 5.875 as a mixed number or fraction in simplest form.
(A) 5 and 8 over 9, (B) 5 and 7 over 8, (C) 7 over 8, (D) 5 and 87 over 105
Answer: B
Solve the equation 124 = m + 34.
(A) 158, (B) 90, (C) 88, (D) 4,216
Answer: B
Zelma buys p pounds of bananas for 40 cents per pound. She pays the clerk with a twenty-dollar bill. The clerk subtracts the total cost of the bananas from the twenty-dollar bill to determine the amount of change to give Zelma. Which expression represents the amount of change Zelma should receive?
(A) p - 20, (B) 20 - 40p, (C) 20 - 0.40p, (D) 0.40p - 20
Answer: C
Please answer the following question with just the correct option (A, B, C, or D) without any explanation or additional text.
The variable x varies directly as the square of y, and y varies directly as the cube of z. If x equals -16 when z equals 2, what is the value of x when z equals 1/2?
(A) '-1', (B) '16', (C) '-1/256', (D) '1/16'
Answer:","","","","","","","","","","","","","","","","","","","","","","feedback_imgs/Correct.png"
"call-function","8","381485","0.0-4.0-0.1","my9o4yokqh4jlbv","65cb7d52b59b7dd58392e0ba","67b62c430b9240ccd8986e70","67b647045c318b0897589a97","0","","","","","","defer","Write 1 and 1 over 11 as a whole or mixed number in simplest form.","[""1.1 over 11"",""11 over 11"",""12 over 11"",""11 over 12""]","C","C","modiste","","C","26","algLinUCB_0.9","diff-topics","elementary_mathematics","The following are multiple choice questions about high_school_mathematics.
Colton and his dad bought a gallon of paint that cost $13. They also bought 2 brushes that cost $9 each. What was the total cost, not including tax, of the brushes and the paint they bought?
(A) $22, (B) $24, (C) $31, (D) $35
Answer: C
Solve for y. y – 2 + 3y = 10
(A) 2, (B) 3, (C) 4, (D) 5
Answer: B
Solve 3 over 2 * w = 66.
(A) 33, (B) 44, (C) 88, (D) 99
Answer: B
Write 5.875 as a mixed number or fraction in simplest form.
(A) 5 and 8 over 9, (B) 5 and 7 over 8, (C) 7 over 8, (D) 5 and 87 over 105
Answer: B
Solve the equation 124 = m + 34.
(A) 158, (B) 90, (C) 88, (D) 4,216
Answer: B
Zelma buys p pounds of bananas for 40 cents per pound. She pays the clerk with a twenty-dollar bill. The clerk subtracts the total cost of the bananas from the twenty-dollar bill to determine the amount of change to give Zelma. Which expression represents the amount of change Zelma should receive?
(A) p - 20, (B) 20 - 40p, (C) 20 - 0.40p, (D) 0.40p - 20
Answer: C
Please answer the following question with just the correct option (A, B, C, or D) without any explanation or additional text.
Write 1 and 1 over 11 as a whole or mixed number in simplest form.
(A) '1.1 over 11', (B) '11 over 11', (C) '12 over 11', (D) '11 over 12'
Answer:","","","","","","","","","","","","","","","","","","","","","",""
"survey-html-form","9","467516","0.0-4.0-1.1","my9o4yokqh4jlbv","65cb7d52b59b7dd58392e0ba","67b62c430b9240ccd8986e70","67b647045c318b0897589a97","0","86026.10000014305","","","{""mcAnswer"":""A""}","","","Write 1 and 1 over 11 as a whole or mixed number in simplest form.","[""1.1 over 11"",""11 over 11"",""12 over 11"",""11 over 12""]","C","C","modiste","","C","26","algLinUCB_0.9","diff-topics","elementary_mathematics","The following are multiple choice questions about high_school_mathematics.
Colton and his dad bought a gallon of paint that cost $13. They also bought 2 brushes that cost $9 each. What was the total cost, not including tax, of the brushes and the paint they bought?
(A) $22, (B) $24, (C) $31, (D) $35
Answer: C
Solve for y. y – 2 + 3y = 10
(A) 2, (B) 3, (C) 4, (D) 5
Answer: B
Solve 3 over 2 * w = 66.
(A) 33, (B) 44, (C) 88, (D) 99
Answer: B
Write 5.875 as a mixed number or fraction in simplest form.
(A) 5 and 8 over 9, (B) 5 and 7 over 8, (C) 7 over 8, (D) 5 and 87 over 105
Answer: B
Solve the equation 124 = m + 34.
(A) 158, (B) 90, (C) 88, (D) 4,216
Answer: B
Zelma buys p pounds of bananas for 40 cents per pound. She pays the clerk with a twenty-dollar bill. The clerk subtracts the total cost of the bananas from the twenty-dollar bill to determine the amount of change to give Zelma. Which expression represents the amount of change Zelma should receive?
(A) p - 20, (B) 20 - 40p, (C) 20 - 0.40p, (D) 0.40p - 20
Answer: C
Please answer the following question with just the correct option (A, B, C, or D) without any explanation or additional text.
Write 1 and 1 over 11 as a whole or mixed number in simplest form.
(A) '1.1 over 11', (B) '11 over 11', (C) '12 over 11', (D) '11 over 12'
Answer:","","","","","","","","","","","","","","","","","","","","","",""
"","","","","","","","","","","","","","","","","","","","","","","","","","","","A","","","","","","","","","","","","","","","","","","","","",""
"","","","","","","","","","","","","","","","","","","","","","","","","","","","","false","110","-1","C","false","true","defer","[]","false","0","false","0","{""elementary_mathematics"":[""40/50"",""31/50"",""4/6""],""high_school_mathematics"":[""27/50"",""22/50"",""4/6""],""college_mathematics"":[""22/50"",""26/50"",""2 / 5""]}","{""high_school_mathematics"":false,""elementary_mathematics"":true}","You should attempt this problem by yourself","null","null","null","null","true",""
"image-keyboard-response","10","469030","0.0-4.0-2.1","my9o4yokqh4jlbv","65cb7d52b59b7dd58392e0ba","67b62c430b9240ccd8986e70","67b647045c318b0897589a97","0","null","","","null","","","Write 1 and 1 over 11 as a whole or mixed number in simplest form.","[""1.1 over 11"",""11 over 11"",""12 over 11"",""11 over 12""]","C","C","modiste","","C","26","algLinUCB_0.9","diff-topics","elementary_mathematics","The following are multiple choice questions about high_school_mathematics.
Colton and his dad bought a gallon of paint that cost $13. They also bought 2 brushes that cost $9 each. What was the total cost, not including tax, of the brushes and the paint they bought?
(A) $22, (B) $24, (C) $31, (D) $35
Answer: C
Solve for y. y – 2 + 3y = 10
(A) 2, (B) 3, (C) 4, (D) 5
Answer: B
Solve 3 over 2 * w = 66.
(A) 33, (B) 44, (C) 88, (D) 99
Answer: B
Write 5.875 as a mixed number or fraction in simplest form.
(A) 5 and 8 over 9, (B) 5 and 7 over 8, (C) 7 over 8, (D) 5 and 87 over 105
Answer: B
Solve the equation 124 = m + 34.
(A) 158, (B) 90, (C) 88, (D) 4,216
Answer: B
Zelma buys p pounds of bananas for 40 cents per pound. She pays the clerk with a twenty-dollar bill. The clerk subtracts the total cost of the bananas from the twenty-dollar bill to determine the amount of change to give Zelma. Which expression represents the amount of change Zelma should receive?
(A) p - 20, (B) 20 - 40p, (C) 20 - 0.40p, (D) 0.40p - 20
Answer: C
Please answer the following question with just the correct option (A, B, C, or D) without any explanation or additional text.
Write 1 and 1 over 11 as a whole or mixed number in simplest form.
(A) '1.1 over 11', (B) '11 over 11', (C) '12 over 11', (D) '11 over 12'
Answer:","","","","","","","","","","","","","","","","","","","","","","feedback_imgs/Incorrect.png"
"call-function","11","469031","0.0-4.0-0.2","my9o4yokqh4jlbv","65cb7d52b59b7dd58392e0ba","67b62c430b9240ccd8986e70","67b647045c318b0897589a97","0","","","","","","defer","Let V and W be 4-dimensional subspaces of a 7-dimensional vector space X. Which of the following CANNOT be the dimension of the subspace V intersect W?","[""0"",""1"",""2"",""3""]","A","A","modiste","","A","52","algLinUCB_0.9","diff-topics","college_mathematics","The following are multiple choice questions about high_school_mathematics.
Colton and his dad bought a gallon of paint that cost $13. They also bought 2 brushes that cost $9 each. What was the total cost, not including tax, of the brushes and the paint they bought?
(A) $22, (B) $24, (C) $31, (D) $35
Answer: C
Solve for y. y – 2 + 3y = 10
(A) 2, (B) 3, (C) 4, (D) 5
Answer: B
Solve 3 over 2 * w = 66.
(A) 33, (B) 44, (C) 88, (D) 99
Answer: B
Write 5.875 as a mixed number or fraction in simplest form.
(A) 5 and 8 over 9, (B) 5 and 7 over 8, (C) 7 over 8, (D) 5 and 87 over 105
Answer: B
Solve the equation 124 = m + 34.
(A) 158, (B) 90, (C) 88, (D) 4,216
Answer: B
Zelma buys p pounds of bananas for 40 cents per pound. She pays the clerk with a twenty-dollar bill. The clerk subtracts the total cost of the bananas from the twenty-dollar bill to determine the amount of change to give Zelma. Which expression represents the amount of change Zelma should receive?
(A) p - 20, (B) 20 - 40p, (C) 20 - 0.40p, (D) 0.40p - 20
Answer: C
Please answer the following question with just the correct option (A, B, C, or D) without any explanation or additional text.
Let V and W be 4-dimensional subspaces of a 7-dimensional vector space X. Which of the following CANNOT be the dimension of the subspace V intersect W?
(A) '0', (B) '1', (C) '2', (D) '3'
Answer:","","","","","","","","","","","","","","","","","","","","","",""
"survey-html-form","12","518698","0.0-4.0-1.2","my9o4yokqh4jlbv","65cb7d52b59b7dd58392e0ba","67b62c430b9240ccd8986e70","67b647045c318b0897589a97","0","49657.200000047684","","","{""mcAnswer"":""A""}","","","Let V and W be 4-dimensional subspaces of a 7-dimensional vector space X. Which of the following CANNOT be the dimension of the subspace V intersect W?","[""0"",""1"",""2"",""3""]","A","A","modiste","","A","52","algLinUCB_0.9","diff-topics","college_mathematics","The following are multiple choice questions about high_school_mathematics.
Colton and his dad bought a gallon of paint that cost $13. They also bought 2 brushes that cost $9 each. What was the total cost, not including tax, of the brushes and the paint they bought?
(A) $22, (B) $24, (C) $31, (D) $35
Answer: C
Solve for y. y – 2 + 3y = 10
(A) 2, (B) 3, (C) 4, (D) 5
Answer: B
Solve 3 over 2 * w = 66.
(A) 33, (B) 44, (C) 88, (D) 99
Answer: B
Write 5.875 as a mixed number or fraction in simplest form.
(A) 5 and 8 over 9, (B) 5 and 7 over 8, (C) 7 over 8, (D) 5 and 87 over 105
Answer: B
Solve the equation 124 = m + 34.
(A) 158, (B) 90, (C) 88, (D) 4,216
Answer: B
Zelma buys p pounds of bananas for 40 cents per pound. She pays the clerk with a twenty-dollar bill. The clerk subtracts the total cost of the bananas from the twenty-dollar bill to determine the amount of change to give Zelma. Which expression represents the amount of change Zelma should receive?
(A) p - 20, (B) 20 - 40p, (C) 20 - 0.40p, (D) 0.40p - 20
Answer: C
Please answer the following question with just the correct option (A, B, C, or D) without any explanation or additional text.
Let V and W be 4-dimensional subspaces of a 7-dimensional vector space X. Which of the following CANNOT be the dimension of the subspace V intersect W?
(A) '0', (B) '1', (C) '2', (D) '3'
Answer:","","","","","","","","","","","","","","","","","","","","","",""
"","","","","","","","","","","","","","","","","","","","","","","","","","","","A","","","","","","","","","","","","","","","","","","","","",""
"","","","","","","","","","","","","","","","","","","","","","","","","","","","","false","120","-1","A","true","true","defer","[]","false","0","false","0","{""elementary_mathematics"":[""40/50"",""31/50"",""4/6""],""high_school_mathematics"":[""27/50"",""22/50"",""4/6""],""college_mathematics"":[""22/50"",""26/50"",""3/6""]}","{""high_school_mathematics"":false,""elementary_mathematics"":true,""college_mathematics"":false}","You should outsource this problem to the AI agent","null","null","false","null","null",""
"image-keyboard-response","13","520202","0.0-4.0-2.2","my9o4yokqh4jlbv","65cb7d52b59b7dd58392e0ba","67b62c430b9240ccd8986e70","67b647045c318b0897589a97","0","null","","","null","","","Let V and W be 4-dimensional subspaces of a 7-dimensional vector space X. Which of the following CANNOT be the dimension of the subspace V intersect W?","[""0"",""1"",""2"",""3""]","A","A","modiste","","A","52","algLinUCB_0.9","diff-topics","college_mathematics","The following are multiple choice questions about high_school_mathematics.
Colton and his dad bought a gallon of paint that cost $13. They also bought 2 brushes that cost $9 each. What was the total cost, not including tax, of the brushes and the paint they bought?
(A) $22, (B) $24, (C) $31, (D) $35
Answer: C
Solve for y. y – 2 + 3y = 10
(A) 2, (B) 3, (C) 4, (D) 5
Answer: B
Solve 3 over 2 * w = 66.
(A) 33, (B) 44, (C) 88, (D) 99
Answer: B
Write 5.875 as a mixed number or fraction in simplest form.
(A) 5 and 8 over 9, (B) 5 and 7 over 8, (C) 7 over 8, (D) 5 and 87 over 105
Answer: B
Solve the equation 124 = m + 34.
(A) 158, (B) 90, (C) 88, (D) 4,216
Answer: B
Zelma buys p pounds of bananas for 40 cents per pound. She pays the clerk with a twenty-dollar bill. The clerk subtracts the total cost of the bananas from the twenty-dollar bill to determine the amount of change to give Zelma. Which expression represents the amount of change Zelma should receive?
(A) p - 20, (B) 20 - 40p, (C) 20 - 0.40p, (D) 0.40p - 20
Answer: C
Please answer the following question with just the correct option (A, B, C, or D) without any explanation or additional text.
Let V and W be 4-dimensional subspaces of a 7-dimensional vector space X. Which of the following CANNOT be the dimension of the subspace V intersect W?
(A) '0', (B) '1', (C) '2', (D) '3'
Answer:","","","","","","","","","","","","","","","","","","","","","","feedback_imgs/Correct.png"
"call-function","14","520203","0.0-4.0-0.3","my9o4yokqh4jlbv","65cb7d52b59b7dd58392e0ba","67b62c430b9240ccd8986e70","67b647045c318b0897589a97","0","","","","","","defer","You and three friends go to a concert. The total cost for four tickets is 112. Write and solve an equation to find the cost of one ticket t.","[""4t = 112; 448"",""4t = 112; 28"",""t over 4 = 112; 448"",""t over 4 = 112; 28""]","B","B","modiste","","B","24","algLinUCB_0.9","diff-topics","elementary_mathematics","The following are multiple choice questions about high_school_mathematics.
Colton and his dad bought a gallon of paint that cost $13. They also bought 2 brushes that cost $9 each. What was the total cost, not including tax, of the brushes and the paint they bought?
(A) $22, (B) $24, (C) $31, (D) $35
Answer: C
Solve for y. y – 2 + 3y = 10
(A) 2, (B) 3, (C) 4, (D) 5
Answer: B
Solve 3 over 2 * w = 66.
(A) 33, (B) 44, (C) 88, (D) 99
Answer: B
Write 5.875 as a mixed number or fraction in simplest form.
(A) 5 and 8 over 9, (B) 5 and 7 over 8, (C) 7 over 8, (D) 5 and 87 over 105
Answer: B
Solve the equation 124 = m + 34.
(A) 158, (B) 90, (C) 88, (D) 4,216
Answer: B
Zelma buys p pounds of bananas for 40 cents per pound. She pays the clerk with a twenty-dollar bill. The clerk subtracts the total cost of the bananas from the twenty-dollar bill to determine the amount of change to give Zelma. Which expression represents the amount of change Zelma should receive?
(A) p - 20, (B) 20 - 40p, (C) 20 - 0.40p, (D) 0.40p - 20
Answer: C
Please answer the following question with just the correct option (A, B, C, or D) without any explanation or additional text.
You and three friends go to a concert. The total cost for four tickets is 112. Write and solve an equation to find the cost of one ticket t.
(A) '4t = 112; 448', (B) '4t = 112; 28', (C) 't over 4 = 112; 448', (D) 't over 4 = 112; 28'
Answer:","","","","","","","","","","","","true","2","","","","","","","","",""
"survey-html-form","15","633121","0.0-4.0-1.3","my9o4yokqh4jlbv","65cb7d52b59b7dd58392e0ba","67b62c430b9240ccd8986e70","67b647045c318b0897589a97","0","112910.20000004768","","","{""mcAnswer"":""B""}","","","You and three friends go to a concert. The total cost for four tickets is 112. Write and solve an equation to find the cost of one ticket t.","[""4t = 112; 448"",""4t = 112; 28"",""t over 4 = 112; 448"",""t over 4 = 112; 28""]","B","B","modiste","","B","24","algLinUCB_0.9","diff-topics","elementary_mathematics","The following are multiple choice questions about high_school_mathematics.
Colton and his dad bought a gallon of paint that cost $13. They also bought 2 brushes that cost $9 each. What was the total cost, not including tax, of the brushes and the paint they bought?
(A) $22, (B) $24, (C) $31, (D) $35
Answer: C
Solve for y. y – 2 + 3y = 10
(A) 2, (B) 3, (C) 4, (D) 5
Answer: B
Solve 3 over 2 * w = 66.
(A) 33, (B) 44, (C) 88, (D) 99
Answer: B
Write 5.875 as a mixed number or fraction in simplest form.
(A) 5 and 8 over 9, (B) 5 and 7 over 8, (C) 7 over 8, (D) 5 and 87 over 105
Answer: B
Solve the equation 124 = m + 34.
(A) 158, (B) 90, (C) 88, (D) 4,216
Answer: B
Zelma buys p pounds of bananas for 40 cents per pound. She pays the clerk with a twenty-dollar bill. The clerk subtracts the total cost of the bananas from the twenty-dollar bill to determine the amount of change to give Zelma. Which expression represents the amount of change Zelma should receive?
(A) p - 20, (B) 20 - 40p, (C) 20 - 0.40p, (D) 0.40p - 20
Answer: C
Please answer the following question with just the correct option (A, B, C, or D) without any explanation or additional text.
You and three friends go to a concert. The total cost for four tickets is 112. Write and solve an equation to find the cost of one ticket t.
(A) '4t = 112; 448', (B) '4t = 112; 28', (C) 't over 4 = 112; 448', (D) 't over 4 = 112; 28'
Answer:","","","","","","","","","","","","","","","","","","","","","",""
"","","","","","","","","","","","","","","","","","","","","","","","","","","","B","","","","","","","","","","","","","","","","","","","","",""
"","","","","","","","","","","","","","","","","","","","","","","","","","","","","false","127","-1","B","true","true","defer","[]","false","0","true","2","{""elementary_mathematics"":[""40/50"",""32/51"",""4/6""],""high_school_mathematics"":[""27/50"",""22/50"",""4/6""],""college_mathematics"":[""22/50"",""26/50"",""3/6""]}","{""high_school_mathematics"":false,""elementary_mathematics"":false,""college_mathematics"":false}","You were wrong by yourself on elementary_mathematics last time. You should outsource this problem to a human agent","false","null","null","false","null",""
"image-keyboard-response","16","634627","0.0-4.0-2.3","my9o4yokqh4jlbv","65cb7d52b59b7dd58392e0ba","67b62c430b9240ccd8986e70","67b647045c318b0897589a97","0","null","","","null","","","You and three friends go to a concert. The total cost for four tickets is 112. Write and solve an equation to find the cost of one ticket t.","[""4t = 112; 448"",""4t = 112; 28"",""t over 4 = 112; 448"",""t over 4 = 112; 28""]","B","B","modiste","","B","24","algLinUCB_0.9","diff-topics","elementary_mathematics","The following are multiple choice questions about high_school_mathematics.
Colton and his dad bought a gallon of paint that cost $13. They also bought 2 brushes that cost $9 each. What was the total cost, not including tax, of the brushes and the paint they bought?
(A) $22, (B) $24, (C) $31, (D) $35
Answer: C
Solve for y. y – 2 + 3y = 10
(A) 2, (B) 3, (C) 4, (D) 5
Answer: B
Solve 3 over 2 * w = 66.
(A) 33, (B) 44, (C) 88, (D) 99
Answer: B
Write 5.875 as a mixed number or fraction in simplest form.
(A) 5 and 8 over 9, (B) 5 and 7 over 8, (C) 7 over 8, (D) 5 and 87 over 105
Answer: B
Solve the equation 124 = m + 34.
(A) 158, (B) 90, (C) 88, (D) 4,216
Answer: B
Zelma buys p pounds of bananas for 40 cents per pound. She pays the clerk with a twenty-dollar bill. The clerk subtracts the total cost of the bananas from the twenty-dollar bill to determine the amount of change to give Zelma. Which expression represents the amount of change Zelma should receive?
(A) p - 20, (B) 20 - 40p, (C) 20 - 0.40p, (D) 0.40p - 20
Answer: C
Please answer the following question with just the correct option (A, B, C, or D) without any explanation or additional text.
You and three friends go to a concert. The total cost for four tickets is 112. Write and solve an equation to find the cost of one ticket t.
(A) '4t = 112; 448', (B) '4t = 112; 28', (C) 't over 4 = 112; 448', (D) 't over 4 = 112; 28'
Answer:","","","","","","","","","","","","","","","","","","","","","","feedback_imgs/Correct.png"
"call-function","17","634628","0.0-4.0-0.4","my9o4yokqh4jlbv","65cb7d52b59b7dd58392e0ba","67b62c430b9240ccd8986e70","67b647045c318b0897589a97","0","","","","","","defer","Sofia and Tess will each randomly choose one of the 10 integers from 1 to 10. What is the probability that neither integer chosen will be the square of the other?","[""0.64"",""0.72"",""0.81"",""0.95""]","C","D","modiste","","D","54","algLinUCB_0.9","diff-topics","college_mathematics","The following are multiple choice questions about high_school_mathematics.
Colton and his dad bought a gallon of paint that cost $13. They also bought 2 brushes that cost $9 each. What was the total cost, not including tax, of the brushes and the paint they bought?
(A) $22, (B) $24, (C) $31, (D) $35
Answer: C
Solve for y. y – 2 + 3y = 10
(A) 2, (B) 3, (C) 4, (D) 5
Answer: B
Solve 3 over 2 * w = 66.
(A) 33, (B) 44, (C) 88, (D) 99
Answer: B
Write 5.875 as a mixed number or fraction in simplest form.
(A) 5 and 8 over 9, (B) 5 and 7 over 8, (C) 7 over 8, (D) 5 and 87 over 105
Answer: B
Solve the equation 124 = m + 34.
(A) 158, (B) 90, (C) 88, (D) 4,216
Answer: B
Zelma buys p pounds of bananas for 40 cents per pound. She pays the clerk with a twenty-dollar bill. The clerk subtracts the total cost of the bananas from the twenty-dollar bill to determine the amount of change to give Zelma. Which expression represents the amount of change Zelma should receive?
(A) p - 20, (B) 20 - 40p, (C) 20 - 0.40p, (D) 0.40p - 20
Answer: C
Please answer the following question with just the correct option (A, B, C, or D) without any explanation or additional text.
Sofia and Tess will each randomly choose one of the 10 integers from 1 to 10. What is the probability that neither integer chosen will be the square of the other?
(A) '0.64', (B) '0.72', (C) '0.81', (D) '0.95'
Answer:","","","","","","","","","","","","","","","","","","","","","",""
"survey-html-form","18","670085","0.0-4.0-1.4","my9o4yokqh4jlbv","65cb7d52b59b7dd58392e0ba","67b62c430b9240ccd8986e70","67b647045c318b0897589a97","0","35452.200000047684","","","{""mcAnswer"":""D""}","","","Sofia and Tess will each randomly choose one of the 10 integers from 1 to 10. What is the probability that neither integer chosen will be the square of the other?","[""0.64"",""0.72"",""0.81"",""0.95""]","C","D","modiste","","D","54","algLinUCB_0.9","diff-topics","college_mathematics","The following are multiple choice questions about high_school_mathematics.
Colton and his dad bought a gallon of paint that cost $13. They also bought 2 brushes that cost $9 each. What was the total cost, not including tax, of the brushes and the paint they bought?
(A) $22, (B) $24, (C) $31, (D) $35
Answer: C
Solve for y. y – 2 + 3y = 10
(A) 2, (B) 3, (C) 4, (D) 5
Answer: B
Solve 3 over 2 * w = 66.
(A) 33, (B) 44, (C) 88, (D) 99
Answer: B
Write 5.875 as a mixed number or fraction in simplest form.
(A) 5 and 8 over 9, (B) 5 and 7 over 8, (C) 7 over 8, (D) 5 and 87 over 105
Answer: B
Solve the equation 124 = m + 34.
(A) 158, (B) 90, (C) 88, (D) 4,216
Answer: B
Zelma buys p pounds of bananas for 40 cents per pound. She pays the clerk with a twenty-dollar bill. The clerk subtracts the total cost of the bananas from the twenty-dollar bill to determine the amount of change to give Zelma. Which expression represents the amount of change Zelma should receive?
(A) p - 20, (B) 20 - 40p, (C) 20 - 0.40p, (D) 0.40p - 20
Answer: C
Please answer the following question with just the correct option (A, B, C, or D) without any explanation or additional text.
Sofia and Tess will each randomly choose one of the 10 integers from 1 to 10. What is the probability that neither integer chosen will be the square of the other?
(A) '0.64', (B) '0.72', (C) '0.81', (D) '0.95'
Answer:","","","","","","","","","","","","","","","","","","","","","",""
"","","","","","","","","","","","","","","","","","","","","","","","","","","","D","","","","","","","","","","","","","","","","","","","","",""
"","","","","","","","","","","","","","","","","","","","","","","","","","","","","false","137","-1","C","true","false","defer","[]","false","0","false","0","{""elementary_mathematics"":[""40/50"",""32/51"",""4/6""],""high_school_mathematics"":[""27/50"",""22/50"",""4/6""],""college_mathematics"":[""22/50"",""26/50"",""4/7""]}","{""high_school_mathematics"":false,""elementary_mathematics"":false,""college_mathematics"":false}","You should outsource this problem to the AI agent","null","null","false","null","null",""
"image-keyboard-response","19","671603","0.0-4.0-2.4","my9o4yokqh4jlbv","65cb7d52b59b7dd58392e0ba","67b62c430b9240ccd8986e70","67b647045c318b0897589a97","0","null","","","null","","","Sofia and Tess will each randomly choose one of the 10 integers from 1 to 10. What is the probability that neither integer chosen will be the square of the other?","[""0.64"",""0.72"",""0.81"",""0.95""]","C","D","modiste","","D","54","algLinUCB_0.9","diff-topics","college_mathematics","The following are multiple choice questions about high_school_mathematics.
Colton and his dad bought a gallon of paint that cost $13. They also bought 2 brushes that cost $9 each. What was the total cost, not including tax, of the brushes and the paint they bought?
(A) $22, (B) $24, (C) $31, (D) $35
Answer: C
Solve for y. y – 2 + 3y = 10
(A) 2, (B) 3, (C) 4, (D) 5
Answer: B
Solve 3 over 2 * w = 66.
(A) 33, (B) 44, (C) 88, (D) 99
Answer: B
Write 5.875 as a mixed number or fraction in simplest form.
(A) 5 and 8 over 9, (B) 5 and 7 over 8, (C) 7 over 8, (D) 5 and 87 over 105
Answer: B
Solve the equation 124 = m + 34.
(A) 158, (B) 90, (C) 88, (D) 4,216
Answer: B
Zelma buys p pounds of bananas for 40 cents per pound. She pays the clerk with a twenty-dollar bill. The clerk subtracts the total cost of the bananas from the twenty-dollar bill to determine the amount of change to give Zelma. Which expression represents the amount of change Zelma should receive?
(A) p - 20, (B) 20 - 40p, (C) 20 - 0.40p, (D) 0.40p - 20
Answer: C
Please answer the following question with just the correct option (A, B, C, or D) without any explanation or additional text.
Sofia and Tess will each randomly choose one of the 10 integers from 1 to 10. What is the probability that neither integer chosen will be the square of the other?
(A) '0.64', (B) '0.72', (C) '0.81', (D) '0.95'
Answer:","","","","","","","","","","","","","","","","","","","","","","feedback_imgs/Correct.png"
"call-function","20","671604","0.0-4.0-0.5","my9o4yokqh4jlbv","65cb7d52b59b7dd58392e0ba","67b62c430b9240ccd8986e70","67b647045c318b0897589a97","0","","","","","","defer","Suppose X is a discrete random variable on the set of positive integers such that for each positive integer n, the probability that X = n is 1/2^n. If Y is a random variable with the same probability distribution and X and Y are independent, what is the probability that the value of at least one of the variables X and Y is greater than 3 ?","[""1/64"",""15/64"",""1/4"",""3/8""]","B","B","modiste","","B","51","algLinUCB_0.9","diff-topics","college_mathematics","The following are multiple choice questions about high_school_mathematics.
Colton and his dad bought a gallon of paint that cost $13. They also bought 2 brushes that cost $9 each. What was the total cost, not including tax, of the brushes and the paint they bought?
(A) $22, (B) $24, (C) $31, (D) $35
Answer: C
Solve for y. y – 2 + 3y = 10
(A) 2, (B) 3, (C) 4, (D) 5
Answer: B
Solve 3 over 2 * w = 66.
(A) 33, (B) 44, (C) 88, (D) 99
Answer: B
Write 5.875 as a mixed number or fraction in simplest form.
(A) 5 and 8 over 9, (B) 5 and 7 over 8, (C) 7 over 8, (D) 5 and 87 over 105
Answer: B
Solve the equation 124 = m + 34.
(A) 158, (B) 90, (C) 88, (D) 4,216
Answer: B
Zelma buys p pounds of bananas for 40 cents per pound. She pays the clerk with a twenty-dollar bill. The clerk subtracts the total cost of the bananas from the twenty-dollar bill to determine the amount of change to give Zelma. Which expression represents the amount of change Zelma should receive?
(A) p - 20, (B) 20 - 40p, (C) 20 - 0.40p, (D) 0.40p - 20
Answer: C
Please answer the following question with just the correct option (A, B, C, or D) without any explanation or additional text.
Suppose X is a discrete random variable on the set of positive integers such that for each positive integer n, the probability that X = n is 1/2^n. If Y is a random variable with the same probability distribution and X and Y are independent, what is the probability that the value of at least one of the variables X and Y is greater than 3 ?
(A) '1/64', (B) '15/64', (C) '1/4', (D) '3/8'
Answer:","","","","","","","","","","","","","","","","","","","","","",""
"survey-html-form","21","726655","0.0-4.0-1.5","my9o4yokqh4jlbv","65cb7d52b59b7dd58392e0ba","67b62c430b9240ccd8986e70","67b647045c318b0897589a97","0","55043.200000047684","","","{""mcAnswer"":""B""}","","","Suppose X is a discrete random variable on the set of positive integers such that for each positive integer n, the probability that X = n is 1/2^n. If Y is a random variable with the same probability distribution and X and Y are independent, what is the probability that the value of at least one of the variables X and Y is greater than 3 ?","[""1/64"",""15/64"",""1/4"",""3/8""]","B","B","modiste","","B","51","algLinUCB_0.9","diff-topics","college_mathematics","The following are multiple choice questions about high_school_mathematics.
Colton and his dad bought a gallon of paint that cost $13. They also bought 2 brushes that cost $9 each. What was the total cost, not including tax, of the brushes and the paint they bought?
(A) $22, (B) $24, (C) $31, (D) $35
Answer: C
Solve for y. y – 2 + 3y = 10
(A) 2, (B) 3, (C) 4, (D) 5
Answer: B
Solve 3 over 2 * w = 66.
(A) 33, (B) 44, (C) 88, (D) 99
Answer: B
Write 5.875 as a mixed number or fraction in simplest form.
(A) 5 and 8 over 9, (B) 5 and 7 over 8, (C) 7 over 8, (D) 5 and 87 over 105
Answer: B
Solve the equation 124 = m + 34.
(A) 158, (B) 90, (C) 88, (D) 4,216
Answer: B
Zelma buys p pounds of bananas for 40 cents per pound. She pays the clerk with a twenty-dollar bill. The clerk subtracts the total cost of the bananas from the twenty-dollar bill to determine the amount of change to give Zelma. Which expression represents the amount of change Zelma should receive?
(A) p - 20, (B) 20 - 40p, (C) 20 - 0.40p, (D) 0.40p - 20
Answer: C
Please answer the following question with just the correct option (A, B, C, or D) without any explanation or additional text.
Suppose X is a discrete random variable on the set of positive integers such that for each positive integer n, the probability that X = n is 1/2^n. If Y is a random variable with the same probability distribution and X and Y are independent, what is the probability that the value of at least one of the variables X and Y is greater than 3 ?
(A) '1/64', (B) '15/64', (C) '1/4', (D) '3/8'
Answer:","","","","","","","","","","","","","","","","","","","","","",""
"","","","","","","","","","","","","","","","","","","","","","","","","","","","B","","","","","","","","","","","","","","","","","","","","",""
"","","","","","","","","","","","","","","","","","","","","","","","","","","","","false","147","-1","B","true","true","defer","[]","false","0","false","0","{""elementary_mathematics"":[""40/50"",""32/51"",""4/6""],""high_school_mathematics"":[""27/50"",""22/50"",""4/6""],""college_mathematics"":[""22/50"",""26/50"",""5/8""]}","{""high_school_mathematics"":false,""elementary_mathematics"":false,""college_mathematics"":false}","You should attempt this problem by yourself","null","null","null","null","true",""
"image-keyboard-response","22","728168","0.0-4.0-2.5","my9o4yokqh4jlbv","65cb7d52b59b7dd58392e0ba","67b62c430b9240ccd8986e70","67b647045c318b0897589a97","0","null","","","null","","","Suppose X is a discrete random variable on the set of positive integers such that for each positive integer n, the probability that X = n is 1/2^n. If Y is a random variable with the same probability distribution and X and Y are independent, what is the probability that the value of at least one of the variables X and Y is greater than 3 ?","[""1/64"",""15/64"",""1/4"",""3/8""]","B","B","modiste","","B","51","algLinUCB_0.9","diff-topics","college_mathematics","The following are multiple choice questions about high_school_mathematics.
Colton and his dad bought a gallon of paint that cost $13. They also bought 2 brushes that cost $9 each. What was the total cost, not including tax, of the brushes and the paint they bought?
(A) $22, (B) $24, (C) $31, (D) $35
Answer: C
Solve for y. y – 2 + 3y = 10
(A) 2, (B) 3, (C) 4, (D) 5
Answer: B
Solve 3 over 2 * w = 66.
(A) 33, (B) 44, (C) 88, (D) 99
Answer: B
Write 5.875 as a mixed number or fraction in simplest form.
(A) 5 and 8 over 9, (B) 5 and 7 over 8, (C) 7 over 8, (D) 5 and 87 over 105
Answer: B
Solve the equation 124 = m + 34.
(A) 158, (B) 90, (C) 88, (D) 4,216
Answer: B
Zelma buys p pounds of bananas for 40 cents per pound. She pays the clerk with a twenty-dollar bill. The clerk subtracts the total cost of the bananas from the twenty-dollar bill to determine the amount of change to give Zelma. Which expression represents the amount of change Zelma should receive?
(A) p - 20, (B) 20 - 40p, (C) 20 - 0.40p, (D) 0.40p - 20
Answer: C
Please answer the following question with just the correct option (A, B, C, or D) without any explanation or additional text.
Suppose X is a discrete random variable on the set of positive integers such that for each positive integer n, the probability that X = n is 1/2^n. If Y is a random variable with the same probability distribution and X and Y are independent, what is the probability that the value of at least one of the variables X and Y is greater than 3 ?
(A) '1/64', (B) '15/64', (C) '1/4', (D) '3/8'
Answer:","","","","","","","","","","","","","","","","","","","","","","feedback_imgs/Correct.png"
"call-function","23","728169","0.0-4.0-0.6","my9o4yokqh4jlbv","65cb7d52b59b7dd58392e0ba","67b62c430b9240ccd8986e70","67b647045c318b0897589a97","0","","","","","","defer","Let F be a constant unit force that is parallel to the vector (-1, 0, 1) in xyz-space. What is the work done by F on a particle that moves along the path given by (t, t^2, t^3) between time t=0 and time t=1?","[""-1/4"",""-1/(4sqrt(2))"",""0"",""sqrt(2)""]","C","B","modiste","","C","57","algLinUCB_0.9","diff-topics","college_mathematics","The following are multiple choice questions about high_school_mathematics.
Colton and his dad bought a gallon of paint that cost $13. They also bought 2 brushes that cost $9 each. What was the total cost, not including tax, of the brushes and the paint they bought?
(A) $22, (B) $24, (C) $31, (D) $35
Answer: C
Solve for y. y – 2 + 3y = 10
(A) 2, (B) 3, (C) 4, (D) 5
Answer: B
Solve 3 over 2 * w = 66.
(A) 33, (B) 44, (C) 88, (D) 99
Answer: B
Write 5.875 as a mixed number or fraction in simplest form.
(A) 5 and 8 over 9, (B) 5 and 7 over 8, (C) 7 over 8, (D) 5 and 87 over 105
Answer: B
Solve the equation 124 = m + 34.
(A) 158, (B) 90, (C) 88, (D) 4,216
Answer: B
Zelma buys p pounds of bananas for 40 cents per pound. She pays the clerk with a twenty-dollar bill. The clerk subtracts the total cost of the bananas from the twenty-dollar bill to determine the amount of change to give Zelma. Which expression represents the amount of change Zelma should receive?
(A) p - 20, (B) 20 - 40p, (C) 20 - 0.40p, (D) 0.40p - 20
Answer: C
Please answer the following question with just the correct option (A, B, C, or D) without any explanation or additional text.
Let F be a constant unit force that is parallel to the vector (-1, 0, 1) in xyz-space. What is the work done by F on a particle that moves along the path given by (t, t^2, t^3) between time t=0 and time t=1?
(A) '-1/4', (B) '-1/(4sqrt(2))', (C) '0', (D) 'sqrt(2)'
Answer:","","","","","","","","","","","","","","","","","","","","","",""
"survey-html-form","24","805791","0.0-4.0-1.6","my9o4yokqh4jlbv","65cb7d52b59b7dd58392e0ba","67b62c430b9240ccd8986e70","67b647045c318b0897589a97","0","77609.79999995232","","","{""mcAnswer"":""C""}","","","Let F be a constant unit force that is parallel to the vector (-1, 0, 1) in xyz-space. What is the work done by F on a particle that moves along the path given by (t, t^2, t^3) between time t=0 and time t=1?","[""-1/4"",""-1/(4sqrt(2))"",""0"",""sqrt(2)""]","C","B","modiste","","C","57","algLinUCB_0.9","diff-topics","college_mathematics","The following are multiple choice questions about high_school_mathematics.
Colton and his dad bought a gallon of paint that cost $13. They also bought 2 brushes that cost $9 each. What was the total cost, not including tax, of the brushes and the paint they bought?
(A) $22, (B) $24, (C) $31, (D) $35
Answer: C
Solve for y. y – 2 + 3y = 10
(A) 2, (B) 3, (C) 4, (D) 5
Answer: B
Solve 3 over 2 * w = 66.
(A) 33, (B) 44, (C) 88, (D) 99
Answer: B
Write 5.875 as a mixed number or fraction in simplest form.
(A) 5 and 8 over 9, (B) 5 and 7 over 8, (C) 7 over 8, (D) 5 and 87 over 105
Answer: B
Solve the equation 124 = m + 34.
(A) 158, (B) 90, (C) 88, (D) 4,216
Answer: B
Zelma buys p pounds of bananas for 40 cents per pound. She pays the clerk with a twenty-dollar bill. The clerk subtracts the total cost of the bananas from the twenty-dollar bill to determine the amount of change to give Zelma. Which expression represents the amount of change Zelma should receive?
(A) p - 20, (B) 20 - 40p, (C) 20 - 0.40p, (D) 0.40p - 20
Answer: C
Please answer the following question with just the correct option (A, B, C, or D) without any explanation or additional text.
Let F be a constant unit force that is parallel to the vector (-1, 0, 1) in xyz-space. What is the work done by F on a particle that moves along the path given by (t, t^2, t^3) between time t=0 and time t=1?
(A) '-1/4', (B) '-1/(4sqrt(2))', (C) '0', (D) 'sqrt(2)'
Answer:","","","","","","","","","","","","","","","","","","","","","",""
"","","","","","","","","","","","","","","","","","","","","","","","","","","","C","","","","","","","","","","","","","","","","","","","","",""
"","","","","","","","","","","","","","","","","","","","","","","","","","","","","false","157","-1","C","true","true","defer","[]","false","0","false","0","{""elementary_mathematics"":[""40/50"",""32/51"",""4/6""],""high_school_mathematics"":[""27/50"",""22/50"",""4/6""],""college_mathematics"":[""22/50"",""26/50"",""6/9""]}","{""high_school_mathematics"":false,""elementary_mathematics"":false,""college_mathematics"":false}","You should attempt this problem by yourself","null","null","null","null","true",""
"image-keyboard-response","25","807298","0.0-4.0-2.6","my9o4yokqh4jlbv","65cb7d52b59b7dd58392e0ba","67b62c430b9240ccd8986e70","67b647045c318b0897589a97","0","null","","","null","","","Let F be a constant unit force that is parallel to the vector (-1, 0, 1) in xyz-space. What is the work done by F on a particle that moves along the path given by (t, t^2, t^3) between time t=0 and time t=1?","[""-1/4"",""-1/(4sqrt(2))"",""0"",""sqrt(2)""]","C","B","modiste","","C","57","algLinUCB_0.9","diff-topics","college_mathematics","The following are multiple choice questions about high_school_mathematics.
Colton and his dad bought a gallon of paint that cost $13. They also bought 2 brushes that cost $9 each. What was the total cost, not including tax, of the brushes and the paint they bought?
(A) $22, (B) $24, (C) $31, (D) $35
Answer: C
Solve for y. y – 2 + 3y = 10
(A) 2, (B) 3, (C) 4, (D) 5
Answer: B
Solve 3 over 2 * w = 66.
(A) 33, (B) 44, (C) 88, (D) 99
Answer: B
Write 5.875 as a mixed number or fraction in simplest form.
(A) 5 and 8 over 9, (B) 5 and 7 over 8, (C) 7 over 8, (D) 5 and 87 over 105
Answer: B
Solve the equation 124 = m + 34.
(A) 158, (B) 90, (C) 88, (D) 4,216
Answer: B
Zelma buys p pounds of bananas for 40 cents per pound. She pays the clerk with a twenty-dollar bill. The clerk subtracts the total cost of the bananas from the twenty-dollar bill to determine the amount of change to give Zelma. Which expression represents the amount of change Zelma should receive?
(A) p - 20, (B) 20 - 40p, (C) 20 - 0.40p, (D) 0.40p - 20
Answer: C
Please answer the following question with just the correct option (A, B, C, or D) without any explanation or additional text.
Let F be a constant unit force that is parallel to the vector (-1, 0, 1) in xyz-space. What is the work done by F on a particle that moves along the path given by (t, t^2, t^3) between time t=0 and time t=1?
(A) '-1/4', (B) '-1/(4sqrt(2))', (C) '0', (D) 'sqrt(2)'
Answer:","","","","","","","","","","","","","","","","","","","","","","feedback_imgs/Correct.png"
"call-function","26","807299","0.0-4.0-0.7","my9o4yokqh4jlbv","65cb7d52b59b7dd58392e0ba","67b62c430b9240ccd8986e70","67b647045c318b0897589a97","0","","","","","","defer","Find the quotient of 5.04/0.7","[""0.72"",""0.702"",""10.0571"",""7.2""]","D","D","modiste","","D","29","algLinUCB_0.9","diff-topics","elementary_mathematics","The following are multiple choice questions about high_school_mathematics.
Colton and his dad bought a gallon of paint that cost $13. They also bought 2 brushes that cost $9 each. What was the total cost, not including tax, of the brushes and the paint they bought?
(A) $22, (B) $24, (C) $31, (D) $35
Answer: C
Solve for y. y – 2 + 3y = 10
(A) 2, (B) 3, (C) 4, (D) 5
Answer: B
Solve 3 over 2 * w = 66.
(A) 33, (B) 44, (C) 88, (D) 99
Answer: B
Write 5.875 as a mixed number or fraction in simplest form.
(A) 5 and 8 over 9, (B) 5 and 7 over 8, (C) 7 over 8, (D) 5 and 87 over 105
Answer: B
Solve the equation 124 = m + 34.
(A) 158, (B) 90, (C) 88, (D) 4,216
Answer: B
Zelma buys p pounds of bananas for 40 cents per pound. She pays the clerk with a twenty-dollar bill. The clerk subtracts the total cost of the bananas from the twenty-dollar bill to determine the amount of change to give Zelma. Which expression represents the amount of change Zelma should receive?
(A) p - 20, (B) 20 - 40p, (C) 20 - 0.40p, (D) 0.40p - 20
Answer: C
Please answer the following question with just the correct option (A, B, C, or D) without any explanation or additional text.
Find the quotient of 5.04/0.7
(A) '0.72', (B) '0.702', (C) '10.0571', (D) '7.2'
Answer:","","","","","","","","","","","","","","","","","","","","","",""
"survey-html-form","27","860596","0.0-4.0-1.7","my9o4yokqh4jlbv","65cb7d52b59b7dd58392e0ba","67b62c430b9240ccd8986e70","67b647045c318b0897589a97","0","53291","","","{""mcAnswer"":""D""}","","","Find the quotient of 5.04/0.7","[""0.72"",""0.702"",""10.0571"",""7.2""]","D","D","modiste","","D","29","algLinUCB_0.9","diff-topics","elementary_mathematics","The following are multiple choice questions about high_school_mathematics.
Colton and his dad bought a gallon of paint that cost $13. They also bought 2 brushes that cost $9 each. What was the total cost, not including tax, of the brushes and the paint they bought?
(A) $22, (B) $24, (C) $31, (D) $35
Answer: C
Solve for y. y – 2 + 3y = 10
(A) 2, (B) 3, (C) 4, (D) 5
Answer: B
Solve 3 over 2 * w = 66.
(A) 33, (B) 44, (C) 88, (D) 99
Answer: B
Write 5.875 as a mixed number or fraction in simplest form.
(A) 5 and 8 over 9, (B) 5 and 7 over 8, (C) 7 over 8, (D) 5 and 87 over 105
Answer: B
Solve the equation 124 = m + 34.
(A) 158, (B) 90, (C) 88, (D) 4,216
Answer: B
Zelma buys p pounds of bananas for 40 cents per pound. She pays the clerk with a twenty-dollar bill. The clerk subtracts the total cost of the bananas from the twenty-dollar bill to determine the amount of change to give Zelma. Which expression represents the amount of change Zelma should receive?
(A) p - 20, (B) 20 - 40p, (C) 20 - 0.40p, (D) 0.40p - 20
Answer: C
Please answer the following question with just the correct option (A, B, C, or D) without any explanation or additional text.
Find the quotient of 5.04/0.7
(A) '0.72', (B) '0.702', (C) '10.0571', (D) '7.2'
Answer:","","","","","","","","","","","","","","","","","","","","","",""
"","","","","","","","","","","","","","","","","","","","","","","","","","","","D","","","","","","","","","","","","","","","","","","","","",""
"","","","","","","","","","","","","","","","","","","","","","","","","","","","","false","167","-1","D","true","true","defer","[]","false","0","false","0","{""elementary_mathematics"":[""40/50"",""32/51"",""5/7""],""high_school_mathematics"":[""27/50"",""22/50"",""4/6""],""college_mathematics"":[""22/50"",""26/50"",""6/9""]}","{""high_school_mathematics"":false,""elementary_mathematics"":false,""college_mathematics"":false}","You should outsource this problem to a human agent","null","null","null","false","null",""
"image-keyboard-response","28","862117","0.0-4.0-2.7","my9o4yokqh4jlbv","65cb7d52b59b7dd58392e0ba","67b62c430b9240ccd8986e70","67b647045c318b0897589a97","0","null","","","null","","","Find the quotient of 5.04/0.7","[""0.72"",""0.702"",""10.0571"",""7.2""]","D","D","modiste","","D","29","algLinUCB_0.9","diff-topics","elementary_mathematics","The following are multiple choice questions about high_school_mathematics.
Colton and his dad bought a gallon of paint that cost $13. They also bought 2 brushes that cost $9 each. What was the total cost, not including tax, of the brushes and the paint they bought?
(A) $22, (B) $24, (C) $31, (D) $35
Answer: C
Solve for y. y – 2 + 3y = 10
(A) 2, (B) 3, (C) 4, (D) 5
Answer: B
Solve 3 over 2 * w = 66.
(A) 33, (B) 44, (C) 88, (D) 99
Answer: B
Write 5.875 as a mixed number or fraction in simplest form.
(A) 5 and 8 over 9, (B) 5 and 7 over 8, (C) 7 over 8, (D) 5 and 87 over 105
Answer: B
Solve the equation 124 = m + 34.
(A) 158, (B) 90, (C) 88, (D) 4,216
Answer: B
Zelma buys p pounds of bananas for 40 cents per pound. She pays the clerk with a twenty-dollar bill. The clerk subtracts the total cost of the bananas from the twenty-dollar bill to determine the amount of change to give Zelma. Which expression represents the amount of change Zelma should receive?
(A) p - 20, (B) 20 - 40p, (C) 20 - 0.40p, (D) 0.40p - 20
Answer: C
Please answer the following question with just the correct option (A, B, C, or D) without any explanation or additional text.
Find the quotient of 5.04/0.7
(A) '0.72', (B) '0.702', (C) '10.0571', (D) '7.2'
Answer:","","","","","","","","","","","","","","","","","","","","","","feedback_imgs/Correct.png"
"call-function","29","862118","0.0-4.0-0.8","my9o4yokqh4jlbv","65cb7d52b59b7dd58392e0ba","67b62c430b9240ccd8986e70","67b647045c318b0897589a97","0","","","","","","defer","Suppose P is the set of polynomials with coefficients in Z_5 and degree less than or equal to 7. If the operator D sends p(x) in P to its derivative p′(x), what are the dimensions of the null space n and range r of D?","[""n = 1 and r = 6"",""n = 1 and r = 7"",""n = 2 and r = 5"",""n = 2 and r = 6""]","B","B","modiste","","D","42","algLinUCB_0.9","diff-topics","college_mathematics","The following are multiple choice questions about high_school_mathematics.
Colton and his dad bought a gallon of paint that cost $13. They also bought 2 brushes that cost $9 each. What was the total cost, not including tax, of the brushes and the paint they bought?
(A) $22, (B) $24, (C) $31, (D) $35
Answer: C
Solve for y. y – 2 + 3y = 10
(A) 2, (B) 3, (C) 4, (D) 5
Answer: B
Solve 3 over 2 * w = 66.
(A) 33, (B) 44, (C) 88, (D) 99
Answer: B
Write 5.875 as a mixed number or fraction in simplest form.
(A) 5 and 8 over 9, (B) 5 and 7 over 8, (C) 7 over 8, (D) 5 and 87 over 105
Answer: B
Solve the equation 124 = m + 34.
(A) 158, (B) 90, (C) 88, (D) 4,216
Answer: B
Zelma buys p pounds of bananas for 40 cents per pound. She pays the clerk with a twenty-dollar bill. The clerk subtracts the total cost of the bananas from the twenty-dollar bill to determine the amount of change to give Zelma. Which expression represents the amount of change Zelma should receive?
(A) p - 20, (B) 20 - 40p, (C) 20 - 0.40p, (D) 0.40p - 20
Answer: C
Please answer the following question with just the correct option (A, B, C, or D) without any explanation or additional text.
Suppose P is the set of polynomials with coefficients in Z_5 and degree less than or equal to 7. If the operator D sends p(x) in P to its derivative p′(x), what are the dimensions of the null space n and range r of D?
(A) 'n = 1 and r = 6', (B) 'n = 1 and r = 7', (C) 'n = 2 and r = 5', (D) 'n = 2 and r = 6'
Answer:","","","","","","","","","","","","","","","","","","","","","",""
"survey-html-form","30","1035444","0.0-4.0-1.8","my9o4yokqh4jlbv","65cb7d52b59b7dd58392e0ba","67b62c430b9240ccd8986e70","67b647045c318b0897589a97","0","173319.90000009537","","","{""mcAnswer"":""B""}","","","Suppose P is the set of polynomials with coefficients in Z_5 and degree less than or equal to 7. If the operator D sends p(x) in P to its derivative p′(x), what are the dimensions of the null space n and range r of D?","[""n = 1 and r = 6"",""n = 1 and r = 7"",""n = 2 and r = 5"",""n = 2 and r = 6""]","B","B","modiste","","D","42","algLinUCB_0.9","diff-topics","college_mathematics","The following are multiple choice questions about high_school_mathematics.
Colton and his dad bought a gallon of paint that cost $13. They also bought 2 brushes that cost $9 each. What was the total cost, not including tax, of the brushes and the paint they bought?
(A) $22, (B) $24, (C) $31, (D) $35
Answer: C
Solve for y. y – 2 + 3y = 10
(A) 2, (B) 3, (C) 4, (D) 5
Answer: B
Solve 3 over 2 * w = 66.
(A) 33, (B) 44, (C) 88, (D) 99
Answer: B
Write 5.875 as a mixed number or fraction in simplest form.
(A) 5 and 8 over 9, (B) 5 and 7 over 8, (C) 7 over 8, (D) 5 and 87 over 105
Answer: B
Solve the equation 124 = m + 34.
(A) 158, (B) 90, (C) 88, (D) 4,216
Answer: B
Zelma buys p pounds of bananas for 40 cents per pound. She pays the clerk with a twenty-dollar bill. The clerk subtracts the total cost of the bananas from the twenty-dollar bill to determine the amount of change to give Zelma. Which expression represents the amount of change Zelma should receive?
(A) p - 20, (B) 20 - 40p, (C) 20 - 0.40p, (D) 0.40p - 20
Answer: C
Please answer the following question with just the correct option (A, B, C, or D) without any explanation or additional text.
Suppose P is the set of polynomials with coefficients in Z_5 and degree less than or equal to 7. If the operator D sends p(x) in P to its derivative p′(x), what are the dimensions of the null space n and range r of D?
(A) 'n = 1 and r = 6', (B) 'n = 1 and r = 7', (C) 'n = 2 and r = 5', (D) 'n = 2 and r = 6'
Answer:","","","","","","","","","","","","","","","","","","","","","",""
"","","","","","","","","","","","","","","","","","","","","","","","","","","","B","","","","","","","","","","","","","","","","","","","","",""
"","","","","","","","","","","","","","","","","","","","","","","","","","","","","false","167","-1","B","false","false","defer","[]","false","0","false","0","{""elementary_mathematics"":[""40/50"",""32/51"",""5/7""],""high_school_mathematics"":[""27/50"",""22/50"",""4/6""],""college_mathematics"":[""22/50"",""26/50"",""6/10""]}","{""high_school_mathematics"":false,""elementary_mathematics"":false,""college_mathematics"":true}","You should attempt this problem by yourself","null","null","null","null","true",""
"image-keyboard-response","31","1036959","0.0-4.0-2.8","my9o4yokqh4jlbv","65cb7d52b59b7dd58392e0ba","67b62c430b9240ccd8986e70","67b647045c318b0897589a97","0","null","","","null","","","Suppose P is the set of polynomials with coefficients in Z_5 and degree less than or equal to 7. If the operator D sends p(x) in P to its derivative p′(x), what are the dimensions of the null space n and range r of D?","[""n = 1 and r = 6"",""n = 1 and r = 7"",""n = 2 and r = 5"",""n = 2 and r = 6""]","B","B","modiste","","D","42","algLinUCB_0.9","diff-topics","college_mathematics","The following are multiple choice questions about high_school_mathematics.
Colton and his dad bought a gallon of paint that cost $13. They also bought 2 brushes that cost $9 each. What was the total cost, not including tax, of the brushes and the paint they bought?
(A) $22, (B) $24, (C) $31, (D) $35
Answer: C
Solve for y. y – 2 + 3y = 10
(A) 2, (B) 3, (C) 4, (D) 5
Answer: B
Solve 3 over 2 * w = 66.
(A) 33, (B) 44, (C) 88, (D) 99
Answer: B
Write 5.875 as a mixed number or fraction in simplest form.
(A) 5 and 8 over 9, (B) 5 and 7 over 8, (C) 7 over 8, (D) 5 and 87 over 105
Answer: B
Solve the equation 124 = m + 34.
(A) 158, (B) 90, (C) 88, (D) 4,216
Answer: B
Zelma buys p pounds of bananas for 40 cents per pound. She pays the clerk with a twenty-dollar bill. The clerk subtracts the total cost of the bananas from the twenty-dollar bill to determine the amount of change to give Zelma. Which expression represents the amount of change Zelma should receive?
(A) p - 20, (B) 20 - 40p, (C) 20 - 0.40p, (D) 0.40p - 20
Answer: C
Please answer the following question with just the correct option (A, B, C, or D) without any explanation or additional text.
Suppose P is the set of polynomials with coefficients in Z_5 and degree less than or equal to 7. If the operator D sends p(x) in P to its derivative p′(x), what are the dimensions of the null space n and range r of D?
(A) 'n = 1 and r = 6', (B) 'n = 1 and r = 7', (C) 'n = 2 and r = 5', (D) 'n = 2 and r = 6'
Answer:","","","","","","","","","","","","","","","","","","","","","","feedback_imgs/Incorrect.png"
"call-function","32","1036960","0.0-4.0-0.9","my9o4yokqh4jlbv","65cb7d52b59b7dd58392e0ba","67b62c430b9240ccd8986e70","67b647045c318b0897589a97","0","","","","","","defer","A certain map uses a scale of 1 inch equals 25 miles. How many miles are represented by 5 inches on this map?","[""5"",""25"",""50"",""125""]","D","D","modiste","","D","38","algLinUCB_0.9","diff-topics","elementary_mathematics","The following are multiple choice questions about high_school_mathematics.
Colton and his dad bought a gallon of paint that cost $13. They also bought 2 brushes that cost $9 each. What was the total cost, not including tax, of the brushes and the paint they bought?
(A) $22, (B) $24, (C) $31, (D) $35
Answer: C
Solve for y. y – 2 + 3y = 10
(A) 2, (B) 3, (C) 4, (D) 5
Answer: B
Solve 3 over 2 * w = 66.
(A) 33, (B) 44, (C) 88, (D) 99
Answer: B
Write 5.875 as a mixed number or fraction in simplest form.
(A) 5 and 8 over 9, (B) 5 and 7 over 8, (C) 7 over 8, (D) 5 and 87 over 105
Answer: B
Solve the equation 124 = m + 34.
(A) 158, (B) 90, (C) 88, (D) 4,216
Answer: B
Zelma buys p pounds of bananas for 40 cents per pound. She pays the clerk with a twenty-dollar bill. The clerk subtracts the total cost of the bananas from the twenty-dollar bill to determine the amount of change to give Zelma. Which expression represents the amount of change Zelma should receive?
(A) p - 20, (B) 20 - 40p, (C) 20 - 0.40p, (D) 0.40p - 20
Answer: C
Please answer the following question with just the correct option (A, B, C, or D) without any explanation or additional text.
A certain map uses a scale of 1 inch equals 25 miles. How many miles are represented by 5 inches on this map?
(A) '5', (B) '25', (C) '50', (D) '125'
Answer:","","","","","","","","","","","","","","","","","","","","","",""
"survey-html-form","33","1078196","0.0-4.0-1.9","my9o4yokqh4jlbv","65cb7d52b59b7dd58392e0ba","67b62c430b9240ccd8986e70","67b647045c318b0897589a97","0","41229.59999990463","","","{""mcAnswer"":""D""}","","","A certain map uses a scale of 1 inch equals 25 miles. How many miles are represented by 5 inches on this map?","[""5"",""25"",""50"",""125""]","D","D","modiste","","D","38","algLinUCB_0.9","diff-topics","elementary_mathematics","The following are multiple choice questions about high_school_mathematics.
Colton and his dad bought a gallon of paint that cost $13. They also bought 2 brushes that cost $9 each. What was the total cost, not including tax, of the brushes and the paint they bought?
(A) $22, (B) $24, (C) $31, (D) $35
Answer: C
Solve for y. y – 2 + 3y = 10
(A) 2, (B) 3, (C) 4, (D) 5
Answer: B
Solve 3 over 2 * w = 66.
(A) 33, (B) 44, (C) 88, (D) 99
Answer: B
Write 5.875 as a mixed number or fraction in simplest form.
(A) 5 and 8 over 9, (B) 5 and 7 over 8, (C) 7 over 8, (D) 5 and 87 over 105
Answer: B
Solve the equation 124 = m + 34.
(A) 158, (B) 90, (C) 88, (D) 4,216
Answer: B
Zelma buys p pounds of bananas for 40 cents per pound. She pays the clerk with a twenty-dollar bill. The clerk subtracts the total cost of the bananas from the twenty-dollar bill to determine the amount of change to give Zelma. Which expression represents the amount of change Zelma should receive?
(A) p - 20, (B) 20 - 40p, (C) 20 - 0.40p, (D) 0.40p - 20
Answer: C
Please answer the following question with just the correct option (A, B, C, or D) without any explanation or additional text.
A certain map uses a scale of 1 inch equals 25 miles. How many miles are represented by 5 inches on this map?
(A) '5', (B) '25', (C) '50', (D) '125'
Answer:","","","","","","","","","","","","","","","","","","","","","",""
"","","","","","","","","","","","","","","","","","","","","","","","","","","","D","","","","","","","","","","","","","","","","","","","","",""
"","","","","","","","","","","","","","","","","","","","","","","","","","","","","false","177","-1","D","true","true","defer","[]","false","0","false","0","{""elementary_mathematics"":[""40/50"",""32/51"",""6/8""],""high_school_mathematics"":[""27/50"",""22/50"",""4/6""],""college_mathematics"":[""22/50"",""26/50"",""6/10""]}","{""high_school_mathematics"":false,""elementary_mathematics"":false,""college_mathematics"":true}","You should outsource this problem to a human agent","null","null","null","false","null",""
"image-keyboard-response","34","1079713","0.0-4.0-2.9","my9o4yokqh4jlbv","65cb7d52b59b7dd58392e0ba","67b62c430b9240ccd8986e70","67b647045c318b0897589a97","0","null","","","null","","","A certain map uses a scale of 1 inch equals 25 miles. How many miles are represented by 5 inches on this map?","[""5"",""25"",""50"",""125""]","D","D","modiste","","D","38","algLinUCB_0.9","diff-topics","elementary_mathematics","The following are multiple choice questions about high_school_mathematics.
Colton and his dad bought a gallon of paint that cost $13. They also bought 2 brushes that cost $9 each. What was the total cost, not including tax, of the brushes and the paint they bought?
(A) $22, (B) $24, (C) $31, (D) $35
Answer: C
Solve for y. y – 2 + 3y = 10
(A) 2, (B) 3, (C) 4, (D) 5
Answer: B
Solve 3 over 2 * w = 66.
(A) 33, (B) 44, (C) 88, (D) 99
Answer: B
Write 5.875 as a mixed number or fraction in simplest form.
(A) 5 and 8 over 9, (B) 5 and 7 over 8, (C) 7 over 8, (D) 5 and 87 over 105
Answer: B
Solve the equation 124 = m + 34.
(A) 158, (B) 90, (C) 88, (D) 4,216
Answer: B
Zelma buys p pounds of bananas for 40 cents per pound. She pays the clerk with a twenty-dollar bill. The clerk subtracts the total cost of the bananas from the twenty-dollar bill to determine the amount of change to give Zelma. Which expression represents the amount of change Zelma should receive?
(A) p - 20, (B) 20 - 40p, (C) 20 - 0.40p, (D) 0.40p - 20
Answer: C
Please answer the following question with just the correct option (A, B, C, or D) without any explanation or additional text.
A certain map uses a scale of 1 inch equals 25 miles. How many miles are represented by 5 inches on this map?
(A) '5', (B) '25', (C) '50', (D) '125'
Answer:","","","","","","","","","","","","","","","","","","","","","","feedback_imgs/Correct.png"
"call-function","35","1079714","0.0-4.0-0.10","my9o4yokqh4jlbv","65cb7d52b59b7dd58392e0ba","67b62c430b9240ccd8986e70","67b647045c318b0897589a97","0","","","","","","defer","Ms. Perez drove a total of 40 miles in 5 days. She drove the same number of miles each day. How many miles did Ms. Perez drive each day?","[""5"",""7"",""8"",""9""]","A","C","modiste","","C","21","algLinUCB_0.9","diff-topics","elementary_mathematics","The following are multiple choice questions about high_school_mathematics.
Colton and his dad bought a gallon of paint that cost $13. They also bought 2 brushes that cost $9 each. What was the total cost, not including tax, of the brushes and the paint they bought?
(A) $22, (B) $24, (C) $31, (D) $35
Answer: C
Solve for y. y – 2 + 3y = 10
(A) 2, (B) 3, (C) 4, (D) 5
Answer: B
Solve 3 over 2 * w = 66.
(A) 33, (B) 44, (C) 88, (D) 99
Answer: B
Write 5.875 as a mixed number or fraction in simplest form.
(A) 5 and 8 over 9, (B) 5 and 7 over 8, (C) 7 over 8, (D) 5 and 87 over 105
Answer: B
Solve the equation 124 = m + 34.
(A) 158, (B) 90, (C) 88, (D) 4,216
Answer: B
Zelma buys p pounds of bananas for 40 cents per pound. She pays the clerk with a twenty-dollar bill. The clerk subtracts the total cost of the bananas from the twenty-dollar bill to determine the amount of change to give Zelma. Which expression represents the amount of change Zelma should receive?
(A) p - 20, (B) 20 - 40p, (C) 20 - 0.40p, (D) 0.40p - 20
Answer: C
Please answer the following question with just the correct option (A, B, C, or D) without any explanation or additional text.
Ms. Perez drove a total of 40 miles in 5 days. She drove the same number of miles each day. How many miles did Ms. Perez drive each day?
(A) '5', (B) '7', (C) '8', (D) '9'
Answer:","","","","","","","","","","","","","","","","","","","","","",""
"survey-html-form","36","1115916","0.0-4.0-1.10","my9o4yokqh4jlbv","65cb7d52b59b7dd58392e0ba","67b62c430b9240ccd8986e70","67b647045c318b0897589a97","0","36198.40000009537","","","{""mcAnswer"":""C""}","","","Ms. Perez drove a total of 40 miles in 5 days. She drove the same number of miles each day. How many miles did Ms. Perez drive each day?","[""5"",""7"",""8"",""9""]","A","C","modiste","","C","21","algLinUCB_0.9","diff-topics","elementary_mathematics","The following are multiple choice questions about high_school_mathematics.
Colton and his dad bought a gallon of paint that cost $13. They also bought 2 brushes that cost $9 each. What was the total cost, not including tax, of the brushes and the paint they bought?
(A) $22, (B) $24, (C) $31, (D) $35
Answer: C
Solve for y. y – 2 + 3y = 10
(A) 2, (B) 3, (C) 4, (D) 5
Answer: B
Solve 3 over 2 * w = 66.
(A) 33, (B) 44, (C) 88, (D) 99
Answer: B
Write 5.875 as a mixed number or fraction in simplest form.
(A) 5 and 8 over 9, (B) 5 and 7 over 8, (C) 7 over 8, (D) 5 and 87 over 105
Answer: B
Solve the equation 124 = m + 34.
(A) 158, (B) 90, (C) 88, (D) 4,216
Answer: B
Zelma buys p pounds of bananas for 40 cents per pound. She pays the clerk with a twenty-dollar bill. The clerk subtracts the total cost of the bananas from the twenty-dollar bill to determine the amount of change to give Zelma. Which expression represents the amount of change Zelma should receive?
(A) p - 20, (B) 20 - 40p, (C) 20 - 0.40p, (D) 0.40p - 20
Answer: C
Please answer the following question with just the correct option (A, B, C, or D) without any explanation or additional text.
Ms. Perez drove a total of 40 miles in 5 days. She drove the same number of miles each day. How many miles did Ms. Perez drive each day?
(A) '5', (B) '7', (C) '8', (D) '9'
Answer:","","","","","","","","","","","","","","","","","","","","","",""
"","","","","","","","","","","","","","","","","","","","","","","","","","","","C","","","","","","","","","","","","","","","","","","","","",""
"","","","","","","","","","","","","","","","","","","","","","","","","","","","","false","187","-1","A","true","false","defer","[]","false","0","false","0","{""elementary_mathematics"":[""40/50"",""32/51"",""7/9""],""high_school_mathematics"":[""27/50"",""22/50"",""4/6""],""college_mathematics"":[""22/50"",""26/50"",""6/10""]}","{""high_school_mathematics"":false,""elementary_mathematics"":false,""college_mathematics"":true}","You should outsource this problem to a human agent","null","null","null","false","null",""
"image-keyboard-response","37","1117428","0.0-4.0-2.10","my9o4yokqh4jlbv","65cb7d52b59b7dd58392e0ba","67b62c430b9240ccd8986e70","67b647045c318b0897589a97","0","null","","","null","","","Ms. Perez drove a total of 40 miles in 5 days. She drove the same number of miles each day. How many miles did Ms. Perez drive each day?","[""5"",""7"",""8"",""9""]","A","C","modiste","","C","21","algLinUCB_0.9","diff-topics","elementary_mathematics","The following are multiple choice questions about high_school_mathematics.
Colton and his dad bought a gallon of paint that cost $13. They also bought 2 brushes that cost $9 each. What was the total cost, not including tax, of the brushes and the paint they bought?
(A) $22, (B) $24, (C) $31, (D) $35
Answer: C
Solve for y. y – 2 + 3y = 10
(A) 2, (B) 3, (C) 4, (D) 5
Answer: B
Solve 3 over 2 * w = 66.
(A) 33, (B) 44, (C) 88, (D) 99
Answer: B
Write 5.875 as a mixed number or fraction in simplest form.
(A) 5 and 8 over 9, (B) 5 and 7 over 8, (C) 7 over 8, (D) 5 and 87 over 105
Answer: B
Solve the equation 124 = m + 34.
(A) 158, (B) 90, (C) 88, (D) 4,216
Answer: B
Zelma buys p pounds of bananas for 40 cents per pound. She pays the clerk with a twenty-dollar bill. The clerk subtracts the total cost of the bananas from the twenty-dollar bill to determine the amount of change to give Zelma. Which expression represents the amount of change Zelma should receive?
(A) p - 20, (B) 20 - 40p, (C) 20 - 0.40p, (D) 0.40p - 20
Answer: C
Please answer the following question with just the correct option (A, B, C, or D) without any explanation or additional text.
Ms. Perez drove a total of 40 miles in 5 days. She drove the same number of miles each day. How many miles did Ms. Perez drive each day?
(A) '5', (B) '7', (C) '8', (D) '9'
Answer:","","","","","","","","","","","","","","","","","","","","","","feedback_imgs/Correct.png"
"call-function","38","1117429","0.0-4.0-0.11","my9o4yokqh4jlbv","65cb7d52b59b7dd58392e0ba","67b62c430b9240ccd8986e70","67b647045c318b0897589a97","0","","","","","","defer","A soccer team has 90.00 to buy soccer balls. If one soccer ball costs 15.60, what is the greatest number of soccer balls the team can buy?","[""4"",""5"",""6"",""7""]","B","B","modiste","","B","23","algLinUCB_0.9","diff-topics","elementary_mathematics","The following are multiple choice questions about high_school_mathematics.
Colton and his dad bought a gallon of paint that cost $13. They also bought 2 brushes that cost $9 each. What was the total cost, not including tax, of the brushes and the paint they bought?
(A) $22, (B) $24, (C) $31, (D) $35
Answer: C
Solve for y. y – 2 + 3y = 10
(A) 2, (B) 3, (C) 4, (D) 5
Answer: B
Solve 3 over 2 * w = 66.
(A) 33, (B) 44, (C) 88, (D) 99
Answer: B
Write 5.875 as a mixed number or fraction in simplest form.
(A) 5 and 8 over 9, (B) 5 and 7 over 8, (C) 7 over 8, (D) 5 and 87 over 105
Answer: B
Solve the equation 124 = m + 34.
(A) 158, (B) 90, (C) 88, (D) 4,216
Answer: B
Zelma buys p pounds of bananas for 40 cents per pound. She pays the clerk with a twenty-dollar bill. The clerk subtracts the total cost of the bananas from the twenty-dollar bill to determine the amount of change to give Zelma. Which expression represents the amount of change Zelma should receive?
(A) p - 20, (B) 20 - 40p, (C) 20 - 0.40p, (D) 0.40p - 20
Answer: C
Please answer the following question with just the correct option (A, B, C, or D) without any explanation or additional text.
A soccer team has 90.00 to buy soccer balls. If one soccer ball costs 15.60, what is the greatest number of soccer balls the team can buy?
(A) '4', (B) '5', (C) '6', (D) '7'
Answer:","","","","","","","","","","","","","","","","","","","","","",""
"survey-html-form","39","1213536","0.0-4.0-1.11","my9o4yokqh4jlbv","65cb7d52b59b7dd58392e0ba","67b62c430b9240ccd8986e70","67b647045c318b0897589a97","0","96102.70000004768","","","{""mcAnswer"":""B""}","","","A soccer team has 90.00 to buy soccer balls. If one soccer ball costs 15.60, what is the greatest number of soccer balls the team can buy?","[""4"",""5"",""6"",""7""]","B","B","modiste","","B","23","algLinUCB_0.9","diff-topics","elementary_mathematics","The following are multiple choice questions about high_school_mathematics.
Colton and his dad bought a gallon of paint that cost $13. They also bought 2 brushes that cost $9 each. What was the total cost, not including tax, of the brushes and the paint they bought?
(A) $22, (B) $24, (C) $31, (D) $35
Answer: C
Solve for y. y – 2 + 3y = 10
(A) 2, (B) 3, (C) 4, (D) 5
Answer: B
Solve 3 over 2 * w = 66.
(A) 33, (B) 44, (C) 88, (D) 99
Answer: B
Write 5.875 as a mixed number or fraction in simplest form.
(A) 5 and 8 over 9, (B) 5 and 7 over 8, (C) 7 over 8, (D) 5 and 87 over 105
Answer: B
Solve the equation 124 = m + 34.
(A) 158, (B) 90, (C) 88, (D) 4,216
Answer: B
Zelma buys p pounds of bananas for 40 cents per pound. She pays the clerk with a twenty-dollar bill. The clerk subtracts the total cost of the bananas from the twenty-dollar bill to determine the amount of change to give Zelma. Which expression represents the amount of change Zelma should receive?
(A) p - 20, (B) 20 - 40p, (C) 20 - 0.40p, (D) 0.40p - 20
Answer: C
Please answer the following question with just the correct option (A, B, C, or D) without any explanation or additional text.
A soccer team has 90.00 to buy soccer balls. If one soccer ball costs 15.60, what is the greatest number of soccer balls the team can buy?
(A) '4', (B) '5', (C) '6', (D) '7'
Answer:","","","","","","","","","","","","","","","","","","","","","",""
"","","","","","","","","","","","","","","","","","","","","","","","","","","","B","","","","","","","","","","","","","","","","","","","","",""
"","","","","","","","","","","","","","","","","","","","","","","","","","","","","false","197","-1","B","true","true","defer","[]","false","0","false","0","{""elementary_mathematics"":[""40/50"",""32/51"",""8/10""],""high_school_mathematics"":[""27/50"",""22/50"",""4/6""],""college_mathematics"":[""22/50"",""26/50"",""6/10""]}","{""high_school_mathematics"":false,""elementary_mathematics"":false,""college_mathematics"":true}","You should outsource this problem to a human agent","null","null","null","false","null",""
"image-keyboard-response","40","1215054","0.0-4.0-2.11","my9o4yokqh4jlbv","65cb7d52b59b7dd58392e0ba","67b62c430b9240ccd8986e70","67b647045c318b0897589a97","0","null","","","null","","","A soccer team has 90.00 to buy soccer balls. If one soccer ball costs 15.60, what is the greatest number of soccer balls the team can buy?","[""4"",""5"",""6"",""7""]","B","B","modiste","","B","23","algLinUCB_0.9","diff-topics","elementary_mathematics","The following are multiple choice questions about high_school_mathematics.
Colton and his dad bought a gallon of paint that cost $13. They also bought 2 brushes that cost $9 each. What was the total cost, not including tax, of the brushes and the paint they bought?
(A) $22, (B) $24, (C) $31, (D) $35
Answer: C
Solve for y. y – 2 + 3y = 10
(A) 2, (B) 3, (C) 4, (D) 5
Answer: B
Solve 3 over 2 * w = 66.
(A) 33, (B) 44, (C) 88, (D) 99
Answer: B
Write 5.875 as a mixed number or fraction in simplest form.
(A) 5 and 8 over 9, (B) 5 and 7 over 8, (C) 7 over 8, (D) 5 and 87 over 105
Answer: B
Solve the equation 124 = m + 34.
(A) 158, (B) 90, (C) 88, (D) 4,216
Answer: B
Zelma buys p pounds of bananas for 40 cents per pound. She pays the clerk with a twenty-dollar bill. The clerk subtracts the total cost of the bananas from the twenty-dollar bill to determine the amount of change to give Zelma. Which expression represents the amount of change Zelma should receive?
(A) p - 20, (B) 20 - 40p, (C) 20 - 0.40p, (D) 0.40p - 20
Answer: C
Please answer the following question with just the correct option (A, B, C, or D) without any explanation or additional text.
A soccer team has 90.00 to buy soccer balls. If one soccer ball costs 15.60, what is the greatest number of soccer balls the team can buy?
(A) '4', (B) '5', (C) '6', (D) '7'
Answer:","","","","","","","","","","","","","","","","","","","","","","feedback_imgs/Correct.png"
"call-function","41","1215055","0.0-4.0-0.12","my9o4yokqh4jlbv","65cb7d52b59b7dd58392e0ba","67b62c430b9240ccd8986e70","67b647045c318b0897589a97","0","","","","","","defer","John divided his souvenir hat pins into two piles. The two piles had an equal number of pins. He gave his brother one-half of one-third of one pile. John had 66 pins left. How many pins did John originally have?","[""792"",""66"",""396"",""72""]","B","D","modiste","","D","10","algLinUCB_0.9","diff-topics","high_school_mathematics","The following are multiple choice questions about high_school_mathematics.
Colton and his dad bought a gallon of paint that cost $13. They also bought 2 brushes that cost $9 each. What was the total cost, not including tax, of the brushes and the paint they bought?
(A) $22, (B) $24, (C) $31, (D) $35
Answer: C
Solve for y. y – 2 + 3y = 10
(A) 2, (B) 3, (C) 4, (D) 5
Answer: B
Solve 3 over 2 * w = 66.
(A) 33, (B) 44, (C) 88, (D) 99
Answer: B
Write 5.875 as a mixed number or fraction in simplest form.
(A) 5 and 8 over 9, (B) 5 and 7 over 8, (C) 7 over 8, (D) 5 and 87 over 105
Answer: B
Solve the equation 124 = m + 34.
(A) 158, (B) 90, (C) 88, (D) 4,216
Answer: B
Zelma buys p pounds of bananas for 40 cents per pound. She pays the clerk with a twenty-dollar bill. The clerk subtracts the total cost of the bananas from the twenty-dollar bill to determine the amount of change to give Zelma. Which expression represents the amount of change Zelma should receive?
(A) p - 20, (B) 20 - 40p, (C) 20 - 0.40p, (D) 0.40p - 20
Answer: C
Please answer the following question with just the correct option (A, B, C, or D) without any explanation or additional text.
John divided his souvenir hat pins into two piles. The two piles had an equal number of pins. He gave his brother one-half of one-third of one pile. John had 66 pins left. How many pins did John originally have?
(A) '396', (B) '72', (C) '66', (D) '36'
Answer:","","","","","","","","","","","","","","","","","","","","","",""
"survey-html-form","42","1259475","0.0-4.0-1.12","my9o4yokqh4jlbv","65cb7d52b59b7dd58392e0ba","67b62c430b9240ccd8986e70","67b647045c318b0897589a97","0","44416.200000047684","","","{""mcAnswer"":""A""}","","","John divided his souvenir hat pins into two piles. The two piles had an equal number of pins. He gave his brother one-half of one-third of one pile. John had 66 pins left. How many pins did John originally have?","[""792"",""66"",""396"",""72""]","B","D","modiste","","D","10","algLinUCB_0.9","diff-topics","high_school_mathematics","The following are multiple choice questions about high_school_mathematics.
Colton and his dad bought a gallon of paint that cost $13. They also bought 2 brushes that cost $9 each. What was the total cost, not including tax, of the brushes and the paint they bought?
(A) $22, (B) $24, (C) $31, (D) $35
Answer: C
Solve for y. y – 2 + 3y = 10
(A) 2, (B) 3, (C) 4, (D) 5
Answer: B
Solve 3 over 2 * w = 66.
(A) 33, (B) 44, (C) 88, (D) 99
Answer: B
Write 5.875 as a mixed number or fraction in simplest form.
(A) 5 and 8 over 9, (B) 5 and 7 over 8, (C) 7 over 8, (D) 5 and 87 over 105
Answer: B
Solve the equation 124 = m + 34.
(A) 158, (B) 90, (C) 88, (D) 4,216
Answer: B
Zelma buys p pounds of bananas for 40 cents per pound. She pays the clerk with a twenty-dollar bill. The clerk subtracts the total cost of the bananas from the twenty-dollar bill to determine the amount of change to give Zelma. Which expression represents the amount of change Zelma should receive?
(A) p - 20, (B) 20 - 40p, (C) 20 - 0.40p, (D) 0.40p - 20
Answer: C
Please answer the following question with just the correct option (A, B, C, or D) without any explanation or additional text.
John divided his souvenir hat pins into two piles. The two piles had an equal number of pins. He gave his brother one-half of one-third of one pile. John had 66 pins left. How many pins did John originally have?
(A) '396', (B) '72', (C) '66', (D) '36'
Answer:","","","","","","","","","","","","","","","","","","","","","",""
"","","","","","","","","","","","","","","","","","","","","","","","","","","","A","","","","","","","","","","","","","","","","","","","","",""
"","","","","","","","","","","","","","","","","","","","","","","","","","","","","false","197","-1","B","false","false","defer","[]","false","0","false","0","{""elementary_mathematics"":[""40/50"",""32/51"",""8/10""],""high_school_mathematics"":[""27/50"",""22/50"",""4/7""],""college_mathematics"":[""22/50"",""26/50"",""6/10""]}","{""high_school_mathematics"":true,""elementary_mathematics"":false,""college_mathematics"":true}","You should attempt this problem by yourself","null","null","null","null","true",""
"image-keyboard-response","43","1260990","0.0-4.0-2.12","my9o4yokqh4jlbv","65cb7d52b59b7dd58392e0ba","67b62c430b9240ccd8986e70","67b647045c318b0897589a97","0","null","","","null","","","John divided his souvenir hat pins into two piles. The two piles had an equal number of pins. He gave his brother one-half of one-third of one pile. John had 66 pins left. How many pins did John originally have?","[""792"",""66"",""396"",""72""]","B","D","modiste","","D","10","algLinUCB_0.9","diff-topics","high_school_mathematics","The following are multiple choice questions about high_school_mathematics.
Colton and his dad bought a gallon of paint that cost $13. They also bought 2 brushes that cost $9 each. What was the total cost, not including tax, of the brushes and the paint they bought?
(A) $22, (B) $24, (C) $31, (D) $35
Answer: C
Solve for y. y – 2 + 3y = 10
(A) 2, (B) 3, (C) 4, (D) 5
Answer: B
Solve 3 over 2 * w = 66.
(A) 33, (B) 44, (C) 88, (D) 99
Answer: B
Write 5.875 as a mixed number or fraction in simplest form.
(A) 5 and 8 over 9, (B) 5 and 7 over 8, (C) 7 over 8, (D) 5 and 87 over 105
Answer: B
Solve the equation 124 = m + 34.
(A) 158, (B) 90, (C) 88, (D) 4,216
Answer: B
Zelma buys p pounds of bananas for 40 cents per pound. She pays the clerk with a twenty-dollar bill. The clerk subtracts the total cost of the bananas from the twenty-dollar bill to determine the amount of change to give Zelma. Which expression represents the amount of change Zelma should receive?
(A) p - 20, (B) 20 - 40p, (C) 20 - 0.40p, (D) 0.40p - 20
Answer: C
Please answer the following question with just the correct option (A, B, C, or D) without any explanation or additional text.
John divided his souvenir hat pins into two piles. The two piles had an equal number of pins. He gave his brother one-half of one-third of one pile. John had 66 pins left. How many pins did John originally have?
(A) '396', (B) '72', (C) '66', (D) '36'
Answer:","","","","","","","","","","","","","","","","","","","","","","feedback_imgs/Incorrect.png"
"call-function","44","1260991","0.0-4.0-0.13","my9o4yokqh4jlbv","65cb7d52b59b7dd58392e0ba","67b62c430b9240ccd8986e70","67b647045c318b0897589a97","0","","","","","","defer","Jane's quiz scores were 98, 97, 92, 85 and 93. What was her mean score?","[""92"",""93"",""94.5"",""95""]","C","B","modiste","","B","18","algLinUCB_0.9","diff-topics","high_school_mathematics","The following are multiple choice questions about high_school_mathematics.
Colton and his dad bought a gallon of paint that cost $13. They also bought 2 brushes that cost $9 each. What was the total cost, not including tax, of the brushes and the paint they bought?
(A) $22, (B) $24, (C) $31, (D) $35
Answer: C
Solve for y. y – 2 + 3y = 10
(A) 2, (B) 3, (C) 4, (D) 5
Answer: B
Solve 3 over 2 * w = 66.
(A) 33, (B) 44, (C) 88, (D) 99
Answer: B
Write 5.875 as a mixed number or fraction in simplest form.
(A) 5 and 8 over 9, (B) 5 and 7 over 8, (C) 7 over 8, (D) 5 and 87 over 105
Answer: B
Solve the equation 124 = m + 34.
(A) 158, (B) 90, (C) 88, (D) 4,216
Answer: B
Zelma buys p pounds of bananas for 40 cents per pound. She pays the clerk with a twenty-dollar bill. The clerk subtracts the total cost of the bananas from the twenty-dollar bill to determine the amount of change to give Zelma. Which expression represents the amount of change Zelma should receive?
(A) p - 20, (B) 20 - 40p, (C) 20 - 0.40p, (D) 0.40p - 20
Answer: C
Please answer the following question with just the correct option (A, B, C, or D) without any explanation or additional text.
Jane's quiz scores were 98, 97, 92, 85 and 93. What was her mean score?
(A) '92', (B) '93', (C) '94.5', (D) '95'
Answer:","","","","","","","","","","","","true","2","","","","","","","","",""
"survey-html-form","45","1326991","0.0-4.0-1.13","my9o4yokqh4jlbv","65cb7d52b59b7dd58392e0ba","67b62c430b9240ccd8986e70","67b647045c318b0897589a97","0","65992.29999995232","","","{""mcAnswer"":""B""}","","","Jane's quiz scores were 98, 97, 92, 85 and 93. What was her mean score?","[""92"",""93"",""94.5"",""95""]","C","B","modiste","","B","18","algLinUCB_0.9","diff-topics","high_school_mathematics","The following are multiple choice questions about high_school_mathematics.
Colton and his dad bought a gallon of paint that cost $13. They also bought 2 brushes that cost $9 each. What was the total cost, not including tax, of the brushes and the paint they bought?
(A) $22, (B) $24, (C) $31, (D) $35
Answer: C
Solve for y. y – 2 + 3y = 10
(A) 2, (B) 3, (C) 4, (D) 5
Answer: B
Solve 3 over 2 * w = 66.
(A) 33, (B) 44, (C) 88, (D) 99
Answer: B
Write 5.875 as a mixed number or fraction in simplest form.
(A) 5 and 8 over 9, (B) 5 and 7 over 8, (C) 7 over 8, (D) 5 and 87 over 105
Answer: B
Solve the equation 124 = m + 34.
(A) 158, (B) 90, (C) 88, (D) 4,216
Answer: B
Zelma buys p pounds of bananas for 40 cents per pound. She pays the clerk with a twenty-dollar bill. The clerk subtracts the total cost of the bananas from the twenty-dollar bill to determine the amount of change to give Zelma. Which expression represents the amount of change Zelma should receive?
(A) p - 20, (B) 20 - 40p, (C) 20 - 0.40p, (D) 0.40p - 20
Answer: C
Please answer the following question with just the correct option (A, B, C, or D) without any explanation or additional text.
Jane's quiz scores were 98, 97, 92, 85 and 93. What was her mean score?
(A) '92', (B) '93', (C) '94.5', (D) '95'
Answer:","","","","","","","","","","","","","","","","","","","","","",""
"","","","","","","","","","","","","","","","","","","","","","","","","","","","B","","","","","","","","","","","","","","","","","","","","",""
"","","","","","","","","","","","","","","","","","","","","","","","","","","","","false","204","-1","C","true","false","defer","[]","false","0","true","2","{""elementary_mathematics"":[""40/50"",""32/51"",""8/10""],""high_school_mathematics"":[""27/50"",""23/51"",""4/7""],""college_mathematics"":[""22/50"",""26/50"",""6/10""]}","{""high_school_mathematics"":false,""elementary_mathematics"":false,""college_mathematics"":true}","You were wrong by yourself on high_school_mathematics last time. You should outsource this problem to a human agent","true","null","null","false","null",""
"image-keyboard-response","46","1328505","0.0-4.0-2.13","my9o4yokqh4jlbv","65cb7d52b59b7dd58392e0ba","67b62c430b9240ccd8986e70","67b647045c318b0897589a97","0","null","","","null","","","Jane's quiz scores were 98, 97, 92, 85 and 93. What was her mean score?","[""92"",""93"",""94.5"",""95""]","C","B","modiste","","B","18","algLinUCB_0.9","diff-topics","high_school_mathematics","The following are multiple choice questions about high_school_mathematics.
Colton and his dad bought a gallon of paint that cost $13. They also bought 2 brushes that cost $9 each. What was the total cost, not including tax, of the brushes and the paint they bought?
(A) $22, (B) $24, (C) $31, (D) $35
Answer: C
Solve for y. y – 2 + 3y = 10
(A) 2, (B) 3, (C) 4, (D) 5
Answer: B
Solve 3 over 2 * w = 66.
(A) 33, (B) 44, (C) 88, (D) 99
Answer: B
Write 5.875 as a mixed number or fraction in simplest form.
(A) 5 and 8 over 9, (B) 5 and 7 over 8, (C) 7 over 8, (D) 5 and 87 over 105
Answer: B
Solve the equation 124 = m + 34.
(A) 158, (B) 90, (C) 88, (D) 4,216
Answer: B
Zelma buys p pounds of bananas for 40 cents per pound. She pays the clerk with a twenty-dollar bill. The clerk subtracts the total cost of the bananas from the twenty-dollar bill to determine the amount of change to give Zelma. Which expression represents the amount of change Zelma should receive?
(A) p - 20, (B) 20 - 40p, (C) 20 - 0.40p, (D) 0.40p - 20
Answer: C
Please answer the following question with just the correct option (A, B, C, or D) without any explanation or additional text.
Jane's quiz scores were 98, 97, 92, 85 and 93. What was her mean score?
(A) '92', (B) '93', (C) '94.5', (D) '95'
Answer:","","","","","","","","","","","","","","","","","","","","","","feedback_imgs/Correct.png"
"call-function","47","1328505","0.0-4.0-0.14","my9o4yokqh4jlbv","65cb7d52b59b7dd58392e0ba","67b62c430b9240ccd8986e70","67b647045c318b0897589a97","0","","","","","","defer","A meteorologist reports that there is a 30% probability of rain and no sun. If there is a 40% probability of no rain, then the probability of both rain and sun is","[""0.16"",""0.24"",""0.3"",""0.5""]","B","C","modiste","","C","11","algLinUCB_0.9","diff-topics","high_school_mathematics","The following are multiple choice questions about high_school_mathematics.
Colton and his dad bought a gallon of paint that cost $13. They also bought 2 brushes that cost $9 each. What was the total cost, not including tax, of the brushes and the paint they bought?
(A) $22, (B) $24, (C) $31, (D) $35
Answer: C
Solve for y. y – 2 + 3y = 10
(A) 2, (B) 3, (C) 4, (D) 5
Answer: B
Solve 3 over 2 * w = 66.
(A) 33, (B) 44, (C) 88, (D) 99
Answer: B
Write 5.875 as a mixed number or fraction in simplest form.
(A) 5 and 8 over 9, (B) 5 and 7 over 8, (C) 7 over 8, (D) 5 and 87 over 105
Answer: B
Solve the equation 124 = m + 34.
(A) 158, (B) 90, (C) 88, (D) 4,216
Answer: B
Zelma buys p pounds of bananas for 40 cents per pound. She pays the clerk with a twenty-dollar bill. The clerk subtracts the total cost of the bananas from the twenty-dollar bill to determine the amount of change to give Zelma. Which expression represents the amount of change Zelma should receive?
(A) p - 20, (B) 20 - 40p, (C) 20 - 0.40p, (D) 0.40p - 20
Answer: C
Please answer the following question with just the correct option (A, B, C, or D) without any explanation or additional text.
A meteorologist reports that there is a 30% probability of rain and no sun. If there is a 40% probability of no rain, then the probability of both rain and sun is
(A) '0.16', (B) '0.24', (C) '0.3', (D) '0.5'
Answer:","","","","","","","","","","","","","","","","","","","","","",""
"survey-html-form","48","1382950","0.0-4.0-1.14","my9o4yokqh4jlbv","65cb7d52b59b7dd58392e0ba","67b62c430b9240ccd8986e70","67b647045c318b0897589a97","0","54439.40000009537","","","{""mcAnswer"":""C""}","","","A meteorologist reports that there is a 30% probability of rain and no sun. If there is a 40% probability of no rain, then the probability of both rain and sun is","[""0.16"",""0.24"",""0.3"",""0.5""]","B","C","modiste","","C","11","algLinUCB_0.9","diff-topics","high_school_mathematics","The following are multiple choice questions about high_school_mathematics.
Colton and his dad bought a gallon of paint that cost $13. They also bought 2 brushes that cost $9 each. What was the total cost, not including tax, of the brushes and the paint they bought?
(A) $22, (B) $24, (C) $31, (D) $35
Answer: C
Solve for y. y – 2 + 3y = 10
(A) 2, (B) 3, (C) 4, (D) 5
Answer: B
Solve 3 over 2 * w = 66.
(A) 33, (B) 44, (C) 88, (D) 99
Answer: B
Write 5.875 as a mixed number or fraction in simplest form.
(A) 5 and 8 over 9, (B) 5 and 7 over 8, (C) 7 over 8, (D) 5 and 87 over 105
Answer: B
Solve the equation 124 = m + 34.
(A) 158, (B) 90, (C) 88, (D) 4,216
Answer: B
Zelma buys p pounds of bananas for 40 cents per pound. She pays the clerk with a twenty-dollar bill. The clerk subtracts the total cost of the bananas from the twenty-dollar bill to determine the amount of change to give Zelma. Which expression represents the amount of change Zelma should receive?
(A) p - 20, (B) 20 - 40p, (C) 20 - 0.40p, (D) 0.40p - 20
Answer: C
Please answer the following question with just the correct option (A, B, C, or D) without any explanation or additional text.
A meteorologist reports that there is a 30% probability of rain and no sun. If there is a 40% probability of no rain, then the probability of both rain and sun is
(A) '0.16', (B) '0.24', (C) '0.3', (D) '0.5'
Answer:","","","","","","","","","","","","","","","","","","","","","",""
"","","","","","","","","","","","","","","","","","","","","","","","","","","","C","","","","","","","","","","","","","","","","","","","","",""
"","","","","","","","","","","","","","","","","","","","","","","","","","","","","false","214","-1","B","true","false","defer","[]","false","0","false","0","{""elementary_mathematics"":[""40/50"",""32/51"",""8/10""],""high_school_mathematics"":[""27/50"",""23/51"",""5/8""],""college_mathematics"":[""22/50"",""26/50"",""6/10""]}","{""high_school_mathematics"":false,""elementary_mathematics"":false,""college_mathematics"":true}","You should attempt this problem by yourself","null","null","null","null","true",""
"image-keyboard-response","49","1384458","0.0-4.0-2.14","my9o4yokqh4jlbv","65cb7d52b59b7dd58392e0ba","67b62c430b9240ccd8986e70","67b647045c318b0897589a97","0","null","","","null","","","A meteorologist reports that there is a 30% probability of rain and no sun. If there is a 40% probability of no rain, then the probability of both rain and sun is","[""0.16"",""0.24"",""0.3"",""0.5""]","B","C","modiste","","C","11","algLinUCB_0.9","diff-topics","high_school_mathematics","The following are multiple choice questions about high_school_mathematics.
Colton and his dad bought a gallon of paint that cost $13. They also bought 2 brushes that cost $9 each. What was the total cost, not including tax, of the brushes and the paint they bought?
(A) $22, (B) $24, (C) $31, (D) $35
Answer: C
Solve for y. y – 2 + 3y = 10
(A) 2, (B) 3, (C) 4, (D) 5
Answer: B
Solve 3 over 2 * w = 66.
(A) 33, (B) 44, (C) 88, (D) 99
Answer: B
Write 5.875 as a mixed number or fraction in simplest form.
(A) 5 and 8 over 9, (B) 5 and 7 over 8, (C) 7 over 8, (D) 5 and 87 over 105
Answer: B
Solve the equation 124 = m + 34.
(A) 158, (B) 90, (C) 88, (D) 4,216
Answer: B
Zelma buys p pounds of bananas for 40 cents per pound. She pays the clerk with a twenty-dollar bill. The clerk subtracts the total cost of the bananas from the twenty-dollar bill to determine the amount of change to give Zelma. Which expression represents the amount of change Zelma should receive?
(A) p - 20, (B) 20 - 40p, (C) 20 - 0.40p, (D) 0.40p - 20
Answer: C
Please answer the following question with just the correct option (A, B, C, or D) without any explanation or additional text.
A meteorologist reports that there is a 30% probability of rain and no sun. If there is a 40% probability of no rain, then the probability of both rain and sun is
(A) '0.16', (B) '0.24', (C) '0.3', (D) '0.5'
Answer:","","","","","","","","","","","","","","","","","","","","","","feedback_imgs/Correct.png"
"call-function","50","1384458","0.0-4.0-0.15","my9o4yokqh4jlbv","65cb7d52b59b7dd58392e0ba","67b62c430b9240ccd8986e70","67b647045c318b0897589a97","0","","","","","","defer","If a pentagon P with vertices at (– 2, – 4), (– 4, 1), (–1, 4), (2, 4), and (3, 0) is reflected across the line y = x to get a new pentagon, P', then one of the vertices of P' is","[""(0, – 3)"",""(4, 1)"",""(2, 2)"",""(– 4, –2)""]","B","D","modiste","","D","5","algLinUCB_0.9","diff-topics","high_school_mathematics","The following are multiple choice questions about high_school_mathematics.
