"trial_type","trial_index","time_elapsed","internal_node_id","subject","prolific_id","study_id","session_id","condition","rt","url","view_history","response","question_order","value","question","options","llm_answer","population_answer","task","subj_id","label","example_id","variant","main_variant","topic","prompt","llm_support_used","llm_support_clicks","0","btn_clicked","score","timeToClick","modelPred","humanCorrect","modelCorrect","interfaceType","modelPredDist","human_support_used","human_support_clicks","recommendation_lists","incorrect_answers_by_category","recommendation","LLM_outsourcing_overridden","human_outsourcing_overridden","ai_orch_agreement","human_orch_agreement","self_orch_agreement","stimulus"
"pavlovia","0","4111","0.0-0.0","eeabuqfya43up23","65957cc2d41780a47a18bd91","67b62c430b9240ccd8986e70","67b634d847689537fe7571c6","3","","","","","","","","","","","","","","","","","","","","","","","","","","","","","","","","","","","","","","","",""
"external-html","1","213906","0.0-1.0","eeabuqfya43up23","65957cc2d41780a47a18bd91","67b62c430b9240ccd8986e70","67b634d847689537fe7571c6","3","208191.30000000075","consent.html","","","","","","","","","","","","","","","","","","","","","","","","","","","","","","","","","","","","","",""
"instructions","2","601999","0.0-2.0-0.0","eeabuqfya43up23","65957cc2d41780a47a18bd91","67b62c430b9240ccd8986e70","67b634d847689537fe7571c6","3","388092.3999999985","","[{""page_index"":0,""viewing_time"":93965.29999999702},{""page_index"":1,""viewing_time"":53295.60000000149},{""page_index"":2,""viewing_time"":55759.800000000745},{""page_index"":3,""viewing_time"":54855.800000000745},{""page_index"":4,""viewing_time"":24423.699999999255},{""page_index"":5,""viewing_time"":44312},{""page_index"":6,""viewing_time"":38607.89999999851},{""page_index"":7,""viewing_time"":22871.900000002235}]","","","","","","","","","","","","","","","","","","","","","","","","","","","","","","","","","","","","",""
"survey-multi-choice","3","708072","0.0-2.0-1.0","eeabuqfya43up23","65957cc2d41780a47a18bd91","67b62c430b9240ccd8986e70","67b634d847689537fe7571c6","3","106070.40000000224","","","{""Q0"":""The answer to a mutliple choice question."",""Q1"":""Clicking on a radio button.""}","[0,1]","","","","","","","","","","","","","","","","","","","","","","","","","","","","","","","","","","",""
"instructions","4","756495","0.0-3.0","eeabuqfya43up23","65957cc2d41780a47a18bd91","67b62c430b9240ccd8986e70","67b634d847689537fe7571c6","3","48421.199999999255","","[{""page_index"":0,""viewing_time"":48420.89999999851}]","","","","","","","","","","","","","","","","","","","","","","","","","","","","","","","","","","","","",""
"call-function","5","756496","0.0-4.0-0.0","eeabuqfya43up23","65957cc2d41780a47a18bd91","67b62c430b9240ccd8986e70","67b634d847689537fe7571c6","3","","","","","","defer","In a game two players take turns tossing a fair coin; the winner is the first one to toss a head. The probability that the player who makes the first toss wins the game is","[""1/4"",""1/3"",""1/2"",""2/3""]","C","C","modiste","","D","223","algLinUCB_0.9","diff-topics","college_mathematics","The following are multiple choice questions about high_school_mathematics.
Colton and his dad bought a gallon of paint that cost $13. They also bought 2 brushes that cost $9 each. What was the total cost, not including tax, of the brushes and the paint they bought?
(A) $22, (B) $24, (C) $31, (D) $35
Answer: C
Solve for y. y – 2 + 3y = 10
(A) 2, (B) 3, (C) 4, (D) 5
Answer: B
Solve 3 over 2 * w = 66.
(A) 33, (B) 44, (C) 88, (D) 99
Answer: B
Write 5.875 as a mixed number or fraction in simplest form.
(A) 5 and 8 over 9, (B) 5 and 7 over 8, (C) 7 over 8, (D) 5 and 87 over 105
Answer: B
Solve the equation 124 = m + 34.
(A) 158, (B) 90, (C) 88, (D) 4,216
Answer: B
Zelma buys p pounds of bananas for 40 cents per pound. She pays the clerk with a twenty-dollar bill. The clerk subtracts the total cost of the bananas from the twenty-dollar bill to determine the amount of change to give Zelma. Which expression represents the amount of change Zelma should receive?
(A) p - 20, (B) 20 - 40p, (C) 20 - 0.40p, (D) 0.40p - 20
Answer: C
Please answer the following question with just the correct option (A, B, C, or D) without any explanation or additional text.
In a game two players take turns tossing a fair coin; the winner is the first one to toss a head. The probability that the player who makes the first toss wins the game is
(A) '1/4', (B) '1/3', (C) '1/2', (D) '2/3'
Answer:","true","2","","","","","","","","","","","","","","","","","","","",""
"survey-html-form","6","926503","0.0-4.0-1.0","eeabuqfya43up23","65957cc2d41780a47a18bd91","67b62c430b9240ccd8986e70","67b634d847689537fe7571c6","3","170004.6000000015","","","{""mcAnswer"":""C""}","","","In a game two players take turns tossing a fair coin; the winner is the first one to toss a head. The probability that the player who makes the first toss wins the game is","[""1/4"",""1/3"",""1/2"",""2/3""]","C","C","modiste","","D","223","algLinUCB_0.9","diff-topics","college_mathematics","The following are multiple choice questions about high_school_mathematics.
Colton and his dad bought a gallon of paint that cost $13. They also bought 2 brushes that cost $9 each. What was the total cost, not including tax, of the brushes and the paint they bought?
(A) $22, (B) $24, (C) $31, (D) $35
Answer: C
Solve for y. y – 2 + 3y = 10
(A) 2, (B) 3, (C) 4, (D) 5
Answer: B
Solve 3 over 2 * w = 66.
(A) 33, (B) 44, (C) 88, (D) 99
Answer: B
Write 5.875 as a mixed number or fraction in simplest form.
(A) 5 and 8 over 9, (B) 5 and 7 over 8, (C) 7 over 8, (D) 5 and 87 over 105
Answer: B
Solve the equation 124 = m + 34.
(A) 158, (B) 90, (C) 88, (D) 4,216
Answer: B
Zelma buys p pounds of bananas for 40 cents per pound. She pays the clerk with a twenty-dollar bill. The clerk subtracts the total cost of the bananas from the twenty-dollar bill to determine the amount of change to give Zelma. Which expression represents the amount of change Zelma should receive?
(A) p - 20, (B) 20 - 40p, (C) 20 - 0.40p, (D) 0.40p - 20
Answer: C
Please answer the following question with just the correct option (A, B, C, or D) without any explanation or additional text.
In a game two players take turns tossing a fair coin; the winner is the first one to toss a head. The probability that the player who makes the first toss wins the game is
(A) '1/4', (B) '1/3', (C) '1/2', (D) '2/3'
Answer:","","","","","","","","","","","","","","","","","","","","","",""
"","","","","","","","","","","","","","","","","","","","","","","","","","","","","","C","","","","","","","","","","","","","","","","","","",""
"","","","","","","","","","","","","","","","","","","","","","","","","","","","true","2","","false","97","-1","C","false","false","defer","[]","false","0","{""elementary_mathematics"":[""40/50"",""31/50"",""4 / 5""],""high_school_mathematics"":[""27/50"",""22/50"",""3 / 5""],""college_mathematics"":[""22/50"",""26/51"",""2 / 5""]}","{""college_mathematics"":false}","You should outsource this problem to the AI agent","false","null","true","null","null",""
"image-keyboard-response","7","928019","0.0-4.0-2.0","eeabuqfya43up23","65957cc2d41780a47a18bd91","67b62c430b9240ccd8986e70","67b634d847689537fe7571c6","3","null","","","null","","","In a game two players take turns tossing a fair coin; the winner is the first one to toss a head. The probability that the player who makes the first toss wins the game is","[""1/4"",""1/3"",""1/2"",""2/3""]","C","C","modiste","","D","223","algLinUCB_0.9","diff-topics","college_mathematics","The following are multiple choice questions about high_school_mathematics.
Colton and his dad bought a gallon of paint that cost $13. They also bought 2 brushes that cost $9 each. What was the total cost, not including tax, of the brushes and the paint they bought?
(A) $22, (B) $24, (C) $31, (D) $35
Answer: C
Solve for y. y – 2 + 3y = 10
(A) 2, (B) 3, (C) 4, (D) 5
Answer: B
Solve 3 over 2 * w = 66.
(A) 33, (B) 44, (C) 88, (D) 99
Answer: B
Write 5.875 as a mixed number or fraction in simplest form.
(A) 5 and 8 over 9, (B) 5 and 7 over 8, (C) 7 over 8, (D) 5 and 87 over 105
Answer: B
Solve the equation 124 = m + 34.
(A) 158, (B) 90, (C) 88, (D) 4,216
Answer: B
Zelma buys p pounds of bananas for 40 cents per pound. She pays the clerk with a twenty-dollar bill. The clerk subtracts the total cost of the bananas from the twenty-dollar bill to determine the amount of change to give Zelma. Which expression represents the amount of change Zelma should receive?
(A) p - 20, (B) 20 - 40p, (C) 20 - 0.40p, (D) 0.40p - 20
Answer: C
Please answer the following question with just the correct option (A, B, C, or D) without any explanation or additional text.
In a game two players take turns tossing a fair coin; the winner is the first one to toss a head. The probability that the player who makes the first toss wins the game is
(A) '1/4', (B) '1/3', (C) '1/2', (D) '2/3'
Answer:","","","","","","","","","","","","","","","","","","","","","","feedback_imgs/Incorrect.png"
"call-function","8","928020","0.0-4.0-0.1","eeabuqfya43up23","65957cc2d41780a47a18bd91","67b62c430b9240ccd8986e70","67b634d847689537fe7571c6","3","","","","","","defer","There are 230 calories in 4 ounces of a type of ice cream. How many calories are in 6 ounces of that ice cream?","[""232"",""236"",""345"",""460""]","D","C","modiste","","C","205","algLinUCB_0.9","diff-topics","elementary_mathematics","The following are multiple choice questions about high_school_mathematics.
Colton and his dad bought a gallon of paint that cost $13. They also bought 2 brushes that cost $9 each. What was the total cost, not including tax, of the brushes and the paint they bought?
(A) $22, (B) $24, (C) $31, (D) $35
Answer: C
Solve for y. y – 2 + 3y = 10
(A) 2, (B) 3, (C) 4, (D) 5
Answer: B
Solve 3 over 2 * w = 66.
(A) 33, (B) 44, (C) 88, (D) 99
Answer: B
Write 5.875 as a mixed number or fraction in simplest form.
(A) 5 and 8 over 9, (B) 5 and 7 over 8, (C) 7 over 8, (D) 5 and 87 over 105
Answer: B
Solve the equation 124 = m + 34.
(A) 158, (B) 90, (C) 88, (D) 4,216
Answer: B
Zelma buys p pounds of bananas for 40 cents per pound. She pays the clerk with a twenty-dollar bill. The clerk subtracts the total cost of the bananas from the twenty-dollar bill to determine the amount of change to give Zelma. Which expression represents the amount of change Zelma should receive?
(A) p - 20, (B) 20 - 40p, (C) 20 - 0.40p, (D) 0.40p - 20
Answer: C
Please answer the following question with just the correct option (A, B, C, or D) without any explanation or additional text.
There are 230 calories in 4 ounces of a type of ice cream. How many calories are in 6 ounces of that ice cream?
(A) '232', (B) '236', (C) '345', (D) '460'
Answer:","","","","","","","","","","","","","","","","","","","","","",""
"survey-html-form","9","1045679","0.0-4.0-1.1","eeabuqfya43up23","65957cc2d41780a47a18bd91","67b62c430b9240ccd8986e70","67b634d847689537fe7571c6","3","117651.89999999851","","","{""mcAnswer"":""C""}","","","There are 230 calories in 4 ounces of a type of ice cream. How many calories are in 6 ounces of that ice cream?","[""232"",""236"",""345"",""460""]","D","C","modiste","","C","205","algLinUCB_0.9","diff-topics","elementary_mathematics","The following are multiple choice questions about high_school_mathematics.
Colton and his dad bought a gallon of paint that cost $13. They also bought 2 brushes that cost $9 each. What was the total cost, not including tax, of the brushes and the paint they bought?
(A) $22, (B) $24, (C) $31, (D) $35
Answer: C
Solve for y. y – 2 + 3y = 10
(A) 2, (B) 3, (C) 4, (D) 5
Answer: B
Solve 3 over 2 * w = 66.
(A) 33, (B) 44, (C) 88, (D) 99
Answer: B
Write 5.875 as a mixed number or fraction in simplest form.
(A) 5 and 8 over 9, (B) 5 and 7 over 8, (C) 7 over 8, (D) 5 and 87 over 105
Answer: B
Solve the equation 124 = m + 34.
(A) 158, (B) 90, (C) 88, (D) 4,216
Answer: B
Zelma buys p pounds of bananas for 40 cents per pound. She pays the clerk with a twenty-dollar bill. The clerk subtracts the total cost of the bananas from the twenty-dollar bill to determine the amount of change to give Zelma. Which expression represents the amount of change Zelma should receive?
(A) p - 20, (B) 20 - 40p, (C) 20 - 0.40p, (D) 0.40p - 20
Answer: C
Please answer the following question with just the correct option (A, B, C, or D) without any explanation or additional text.
There are 230 calories in 4 ounces of a type of ice cream. How many calories are in 6 ounces of that ice cream?
(A) '232', (B) '236', (C) '345', (D) '460'
Answer:","","","","","","","","","","","","","","","","","","","","","",""
"","","","","","","","","","","","","","","","","","","","","","","","","","","","","","C","","","","","","","","","","","","","","","","","","",""
"","","","","","","","","","","","","","","","","","","","","","","","","","","","false","0","","false","107","-1","D","true","false","defer","[]","false","0","{""elementary_mathematics"":[""40/50"",""31/50"",""5/6""],""high_school_mathematics"":[""27/50"",""22/50"",""3 / 5""],""college_mathematics"":[""22/50"",""26/51"",""2 / 5""]}","{""college_mathematics"":false,""elementary_mathematics"":false}","You should attempt this problem by yourself","null","null","null","null","true",""
"image-keyboard-response","10","1047191","0.0-4.0-2.1","eeabuqfya43up23","65957cc2d41780a47a18bd91","67b62c430b9240ccd8986e70","67b634d847689537fe7571c6","3","null","","","null","","","There are 230 calories in 4 ounces of a type of ice cream. How many calories are in 6 ounces of that ice cream?","[""232"",""236"",""345"",""460""]","D","C","modiste","","C","205","algLinUCB_0.9","diff-topics","elementary_mathematics","The following are multiple choice questions about high_school_mathematics.
Colton and his dad bought a gallon of paint that cost $13. They also bought 2 brushes that cost $9 each. What was the total cost, not including tax, of the brushes and the paint they bought?
(A) $22, (B) $24, (C) $31, (D) $35
Answer: C
Solve for y. y – 2 + 3y = 10
(A) 2, (B) 3, (C) 4, (D) 5
Answer: B
Solve 3 over 2 * w = 66.
(A) 33, (B) 44, (C) 88, (D) 99
Answer: B
Write 5.875 as a mixed number or fraction in simplest form.
(A) 5 and 8 over 9, (B) 5 and 7 over 8, (C) 7 over 8, (D) 5 and 87 over 105
Answer: B
Solve the equation 124 = m + 34.
(A) 158, (B) 90, (C) 88, (D) 4,216
Answer: B
Zelma buys p pounds of bananas for 40 cents per pound. She pays the clerk with a twenty-dollar bill. The clerk subtracts the total cost of the bananas from the twenty-dollar bill to determine the amount of change to give Zelma. Which expression represents the amount of change Zelma should receive?
(A) p - 20, (B) 20 - 40p, (C) 20 - 0.40p, (D) 0.40p - 20
Answer: C
Please answer the following question with just the correct option (A, B, C, or D) without any explanation or additional text.
There are 230 calories in 4 ounces of a type of ice cream. How many calories are in 6 ounces of that ice cream?
(A) '232', (B) '236', (C) '345', (D) '460'
Answer:","","","","","","","","","","","","","","","","","","","","","","feedback_imgs/Correct.png"
"call-function","11","1047192","0.0-4.0-0.2","eeabuqfya43up23","65957cc2d41780a47a18bd91","67b62c430b9240ccd8986e70","67b634d847689537fe7571c6","3","","","","","","defer","The mean of 7 numbers is 15. When an 8th number is added, the mean decreases to 12. What is the 8th number?","[""–12"",""–9"",""0"",""8""]","B","B","modiste","","B","190","algLinUCB_0.9","diff-topics","high_school_mathematics","The following are multiple choice questions about high_school_mathematics.
Colton and his dad bought a gallon of paint that cost $13. They also bought 2 brushes that cost $9 each. What was the total cost, not including tax, of the brushes and the paint they bought?
(A) $22, (B) $24, (C) $31, (D) $35
Answer: C
Solve for y. y – 2 + 3y = 10
(A) 2, (B) 3, (C) 4, (D) 5
Answer: B
Solve 3 over 2 * w = 66.
(A) 33, (B) 44, (C) 88, (D) 99
Answer: B
Write 5.875 as a mixed number or fraction in simplest form.
(A) 5 and 8 over 9, (B) 5 and 7 over 8, (C) 7 over 8, (D) 5 and 87 over 105
Answer: B
Solve the equation 124 = m + 34.
(A) 158, (B) 90, (C) 88, (D) 4,216
Answer: B
Zelma buys p pounds of bananas for 40 cents per pound. She pays the clerk with a twenty-dollar bill. The clerk subtracts the total cost of the bananas from the twenty-dollar bill to determine the amount of change to give Zelma. Which expression represents the amount of change Zelma should receive?
(A) p - 20, (B) 20 - 40p, (C) 20 - 0.40p, (D) 0.40p - 20
Answer: C
Please answer the following question with just the correct option (A, B, C, or D) without any explanation or additional text.
The mean of 7 numbers is 15. When an 8th number is added, the mean decreases to 12. What is the 8th number?
(A) '–12', (B) '–9', (C) '0', (D) '8'
Answer:","","","","","","","","","","","","","","","","","","","","","",""
"survey-html-form","12","1328205","0.0-4.0-1.2","eeabuqfya43up23","65957cc2d41780a47a18bd91","67b62c430b9240ccd8986e70","67b634d847689537fe7571c6","3","281005.6000000015","","","{""mcAnswer"":""B""}","","","The mean of 7 numbers is 15. When an 8th number is added, the mean decreases to 12. What is the 8th number?","[""–12"",""–9"",""0"",""8""]","B","B","modiste","","B","190","algLinUCB_0.9","diff-topics","high_school_mathematics","The following are multiple choice questions about high_school_mathematics.
Colton and his dad bought a gallon of paint that cost $13. They also bought 2 brushes that cost $9 each. What was the total cost, not including tax, of the brushes and the paint they bought?
(A) $22, (B) $24, (C) $31, (D) $35
Answer: C
Solve for y. y – 2 + 3y = 10
(A) 2, (B) 3, (C) 4, (D) 5
Answer: B
Solve 3 over 2 * w = 66.
(A) 33, (B) 44, (C) 88, (D) 99
Answer: B
Write 5.875 as a mixed number or fraction in simplest form.
(A) 5 and 8 over 9, (B) 5 and 7 over 8, (C) 7 over 8, (D) 5 and 87 over 105
Answer: B
Solve the equation 124 = m + 34.
(A) 158, (B) 90, (C) 88, (D) 4,216
Answer: B
Zelma buys p pounds of bananas for 40 cents per pound. She pays the clerk with a twenty-dollar bill. The clerk subtracts the total cost of the bananas from the twenty-dollar bill to determine the amount of change to give Zelma. Which expression represents the amount of change Zelma should receive?
(A) p - 20, (B) 20 - 40p, (C) 20 - 0.40p, (D) 0.40p - 20
Answer: C
Please answer the following question with just the correct option (A, B, C, or D) without any explanation or additional text.
The mean of 7 numbers is 15. When an 8th number is added, the mean decreases to 12. What is the 8th number?
(A) '–12', (B) '–9', (C) '0', (D) '8'
Answer:","","","","","","","","","","","","","","","","","","","","","",""
"","","","","","","","","","","","","","","","","","","","","","","","","","","","","","B","","","","","","","","","","","","","","","","","","",""
"","","","","","","","","","","","","","","","","","","","","","","","","","","","false","0","","false","117","-1","B","true","true","defer","[]","false","0","{""elementary_mathematics"":[""40/50"",""31/50"",""5/6""],""high_school_mathematics"":[""27/50"",""22/50"",""4/6""],""college_mathematics"":[""22/50"",""26/51"",""2 / 5""]}","{""college_mathematics"":false,""elementary_mathematics"":false,""high_school_mathematics"":false}","You should attempt this problem by yourself","null","null","null","null","true",""
"image-keyboard-response","13","1329720","0.0-4.0-2.2","eeabuqfya43up23","65957cc2d41780a47a18bd91","67b62c430b9240ccd8986e70","67b634d847689537fe7571c6","3","null","","","null","","","The mean of 7 numbers is 15. When an 8th number is added, the mean decreases to 12. What is the 8th number?","[""–12"",""–9"",""0"",""8""]","B","B","modiste","","B","190","algLinUCB_0.9","diff-topics","high_school_mathematics","The following are multiple choice questions about high_school_mathematics.
Colton and his dad bought a gallon of paint that cost $13. They also bought 2 brushes that cost $9 each. What was the total cost, not including tax, of the brushes and the paint they bought?
(A) $22, (B) $24, (C) $31, (D) $35
Answer: C
Solve for y. y – 2 + 3y = 10
(A) 2, (B) 3, (C) 4, (D) 5
Answer: B
Solve 3 over 2 * w = 66.
(A) 33, (B) 44, (C) 88, (D) 99
Answer: B
Write 5.875 as a mixed number or fraction in simplest form.
(A) 5 and 8 over 9, (B) 5 and 7 over 8, (C) 7 over 8, (D) 5 and 87 over 105
Answer: B
Solve the equation 124 = m + 34.
(A) 158, (B) 90, (C) 88, (D) 4,216
Answer: B
Zelma buys p pounds of bananas for 40 cents per pound. She pays the clerk with a twenty-dollar bill. The clerk subtracts the total cost of the bananas from the twenty-dollar bill to determine the amount of change to give Zelma. Which expression represents the amount of change Zelma should receive?
(A) p - 20, (B) 20 - 40p, (C) 20 - 0.40p, (D) 0.40p - 20
Answer: C
Please answer the following question with just the correct option (A, B, C, or D) without any explanation or additional text.
The mean of 7 numbers is 15. When an 8th number is added, the mean decreases to 12. What is the 8th number?
(A) '–12', (B) '–9', (C) '0', (D) '8'
Answer:","","","","","","","","","","","","","","","","","","","","","","feedback_imgs/Correct.png"
"call-function","14","1329722","0.0-4.0-0.3","eeabuqfya43up23","65957cc2d41780a47a18bd91","67b62c430b9240ccd8986e70","67b634d847689537fe7571c6","3","","","","","","defer","Yesterday, Micah ate an even number of strawberries. He also ate an odd number of apples. Which group could represent the strawberries, S, and apples, A, Micah ate yesterday?","[""SSSSS; AAA"",""SSSSS; AAAA"",""SSSSSSSS; AAAA"",""SSSSSSSS; A""]","C","D","modiste","","D","215","algLinUCB_0.9","diff-topics","elementary_mathematics","The following are multiple choice questions about high_school_mathematics.
Colton and his dad bought a gallon of paint that cost $13. They also bought 2 brushes that cost $9 each. What was the total cost, not including tax, of the brushes and the paint they bought?
(A) $22, (B) $24, (C) $31, (D) $35
Answer: C
Solve for y. y – 2 + 3y = 10
(A) 2, (B) 3, (C) 4, (D) 5
Answer: B
Solve 3 over 2 * w = 66.
(A) 33, (B) 44, (C) 88, (D) 99
Answer: B
Write 5.875 as a mixed number or fraction in simplest form.
(A) 5 and 8 over 9, (B) 5 and 7 over 8, (C) 7 over 8, (D) 5 and 87 over 105
Answer: B
Solve the equation 124 = m + 34.
(A) 158, (B) 90, (C) 88, (D) 4,216
Answer: B
Zelma buys p pounds of bananas for 40 cents per pound. She pays the clerk with a twenty-dollar bill. The clerk subtracts the total cost of the bananas from the twenty-dollar bill to determine the amount of change to give Zelma. Which expression represents the amount of change Zelma should receive?
(A) p - 20, (B) 20 - 40p, (C) 20 - 0.40p, (D) 0.40p - 20
Answer: C
Please answer the following question with just the correct option (A, B, C, or D) without any explanation or additional text.
Yesterday, Micah ate an even number of strawberries. He also ate an odd number of apples. Which group could represent the strawberries, S, and apples, A, Micah ate yesterday?
(A) 'SSSSS; AAA', (B) 'SSSSS; AAAA', (C) 'SSSSSSSS; AAAA', (D) 'SSSSSSSS; A'
Answer:","","","","","","","","","","","","","","","","","","","","","",""
"survey-html-form","15","1403156","0.0-4.0-1.3","eeabuqfya43up23","65957cc2d41780a47a18bd91","67b62c430b9240ccd8986e70","67b634d847689537fe7571c6","3","73428","","","{""mcAnswer"":""D""}","","","Yesterday, Micah ate an even number of strawberries. He also ate an odd number of apples. Which group could represent the strawberries, S, and apples, A, Micah ate yesterday?","[""SSSSS; AAA"",""SSSSS; AAAA"",""SSSSSSSS; AAAA"",""SSSSSSSS; A""]","C","D","modiste","","D","215","algLinUCB_0.9","diff-topics","elementary_mathematics","The following are multiple choice questions about high_school_mathematics.
Colton and his dad bought a gallon of paint that cost $13. They also bought 2 brushes that cost $9 each. What was the total cost, not including tax, of the brushes and the paint they bought?
(A) $22, (B) $24, (C) $31, (D) $35
Answer: C
Solve for y. y – 2 + 3y = 10
(A) 2, (B) 3, (C) 4, (D) 5
Answer: B
Solve 3 over 2 * w = 66.
(A) 33, (B) 44, (C) 88, (D) 99
Answer: B
Write 5.875 as a mixed number or fraction in simplest form.
(A) 5 and 8 over 9, (B) 5 and 7 over 8, (C) 7 over 8, (D) 5 and 87 over 105
Answer: B
Solve the equation 124 = m + 34.
(A) 158, (B) 90, (C) 88, (D) 4,216
Answer: B
Zelma buys p pounds of bananas for 40 cents per pound. She pays the clerk with a twenty-dollar bill. The clerk subtracts the total cost of the bananas from the twenty-dollar bill to determine the amount of change to give Zelma. Which expression represents the amount of change Zelma should receive?
(A) p - 20, (B) 20 - 40p, (C) 20 - 0.40p, (D) 0.40p - 20
Answer: C
Please answer the following question with just the correct option (A, B, C, or D) without any explanation or additional text.
Yesterday, Micah ate an even number of strawberries. He also ate an odd number of apples. Which group could represent the strawberries, S, and apples, A, Micah ate yesterday?
(A) 'SSSSS; AAA', (B) 'SSSSS; AAAA', (C) 'SSSSSSSS; AAAA', (D) 'SSSSSSSS; A'
Answer:","","","","","","","","","","","","","","","","","","","","","",""
"","","","","","","","","","","","","","","","","","","","","","","","","","","","","","D","","","","","","","","","","","","","","","","","","",""
"","","","","","","","","","","","","","","","","","","","","","","","","","","","false","0","","false","127","-1","C","true","false","defer","[]","false","0","{""elementary_mathematics"":[""40/50"",""31/50"",""6/7""],""high_school_mathematics"":[""27/50"",""22/50"",""4/6""],""college_mathematics"":[""22/50"",""26/51"",""2 / 5""]}","{""college_mathematics"":false,""elementary_mathematics"":false,""high_school_mathematics"":false}","You should attempt this problem by yourself","null","null","null","null","true",""
"image-keyboard-response","16","1404675","0.0-4.0-2.3","eeabuqfya43up23","65957cc2d41780a47a18bd91","67b62c430b9240ccd8986e70","67b634d847689537fe7571c6","3","null","","","null","","","Yesterday, Micah ate an even number of strawberries. He also ate an odd number of apples. Which group could represent the strawberries, S, and apples, A, Micah ate yesterday?","[""SSSSS; AAA"",""SSSSS; AAAA"",""SSSSSSSS; AAAA"",""SSSSSSSS; A""]","C","D","modiste","","D","215","algLinUCB_0.9","diff-topics","elementary_mathematics","The following are multiple choice questions about high_school_mathematics.
Colton and his dad bought a gallon of paint that cost $13. They also bought 2 brushes that cost $9 each. What was the total cost, not including tax, of the brushes and the paint they bought?
(A) $22, (B) $24, (C) $31, (D) $35
Answer: C
Solve for y. y – 2 + 3y = 10
(A) 2, (B) 3, (C) 4, (D) 5
Answer: B
Solve 3 over 2 * w = 66.
(A) 33, (B) 44, (C) 88, (D) 99
Answer: B
Write 5.875 as a mixed number or fraction in simplest form.
(A) 5 and 8 over 9, (B) 5 and 7 over 8, (C) 7 over 8, (D) 5 and 87 over 105
Answer: B
Solve the equation 124 = m + 34.
(A) 158, (B) 90, (C) 88, (D) 4,216
Answer: B
Zelma buys p pounds of bananas for 40 cents per pound. She pays the clerk with a twenty-dollar bill. The clerk subtracts the total cost of the bananas from the twenty-dollar bill to determine the amount of change to give Zelma. Which expression represents the amount of change Zelma should receive?
(A) p - 20, (B) 20 - 40p, (C) 20 - 0.40p, (D) 0.40p - 20
Answer: C
Please answer the following question with just the correct option (A, B, C, or D) without any explanation or additional text.
Yesterday, Micah ate an even number of strawberries. He also ate an odd number of apples. Which group could represent the strawberries, S, and apples, A, Micah ate yesterday?
(A) 'SSSSS; AAA', (B) 'SSSSS; AAAA', (C) 'SSSSSSSS; AAAA', (D) 'SSSSSSSS; A'
Answer:","","","","","","","","","","","","","","","","","","","","","","feedback_imgs/Correct.png"
"call-function","17","1404676","0.0-4.0-0.4","eeabuqfya43up23","65957cc2d41780a47a18bd91","67b62c430b9240ccd8986e70","67b634d847689537fe7571c6","3","","","","","","defer","Suppose A is a 3 × 3 matrix such that det(A − λI) = −λ^3 + 3λ^2 + λ − 3, where I is the 3 × 3 identity matrix. Which of the following are TRUE of A?
I. The trace of A is 3.
II. The determinate of A is −3.
III. The matrix A has eigenvalues −3 and 1.","[""I only"",""II only"",""III only"",""I and II only""]","D","D","modiste","","D","233","algLinUCB_0.9","diff-topics","college_mathematics","The following are multiple choice questions about high_school_mathematics.
Colton and his dad bought a gallon of paint that cost $13. They also bought 2 brushes that cost $9 each. What was the total cost, not including tax, of the brushes and the paint they bought?
(A) $22, (B) $24, (C) $31, (D) $35
Answer: C
Solve for y. y – 2 + 3y = 10
(A) 2, (B) 3, (C) 4, (D) 5
Answer: B
Solve 3 over 2 * w = 66.
(A) 33, (B) 44, (C) 88, (D) 99
Answer: B
Write 5.875 as a mixed number or fraction in simplest form.
(A) 5 and 8 over 9, (B) 5 and 7 over 8, (C) 7 over 8, (D) 5 and 87 over 105
Answer: B
Solve the equation 124 = m + 34.
(A) 158, (B) 90, (C) 88, (D) 4,216
Answer: B
Zelma buys p pounds of bananas for 40 cents per pound. She pays the clerk with a twenty-dollar bill. The clerk subtracts the total cost of the bananas from the twenty-dollar bill to determine the amount of change to give Zelma. Which expression represents the amount of change Zelma should receive?
(A) p - 20, (B) 20 - 40p, (C) 20 - 0.40p, (D) 0.40p - 20
Answer: C
Please answer the following question with just the correct option (A, B, C, or D) without any explanation or additional text.
Suppose A is a 3 × 3 matrix such that det(A − λI) = −λ^3 + 3λ^2 + λ − 3, where I is the 3 × 3 identity matrix. Which of the following are TRUE of A?
I. The trace of A is 3.
II. The determinate of A is −3.
III. The matrix A has eigenvalues −3 and 1.
(A) 'I only', (B) 'II only', (C) 'III only', (D) 'I and II only'
Answer:","","","","","","","","","","","","","","","","","","","","","",""
"survey-html-form","18","1610964","0.0-4.0-1.4","eeabuqfya43up23","65957cc2d41780a47a18bd91","67b62c430b9240ccd8986e70","67b634d847689537fe7571c6","3","206280.69999999925","","","{""mcAnswer"":""C""}","","","Suppose A is a 3 × 3 matrix such that det(A − λI) = −λ^3 + 3λ^2 + λ − 3, where I is the 3 × 3 identity matrix. Which of the following are TRUE of A?
I. The trace of A is 3.
II. The determinate of A is −3.
III. The matrix A has eigenvalues −3 and 1.","[""I only"",""II only"",""III only"",""I and II only""]","D","D","modiste","","D","233","algLinUCB_0.9","diff-topics","college_mathematics","The following are multiple choice questions about high_school_mathematics.
Colton and his dad bought a gallon of paint that cost $13. They also bought 2 brushes that cost $9 each. What was the total cost, not including tax, of the brushes and the paint they bought?
(A) $22, (B) $24, (C) $31, (D) $35
Answer: C
Solve for y. y – 2 + 3y = 10
(A) 2, (B) 3, (C) 4, (D) 5
Answer: B
Solve 3 over 2 * w = 66.
(A) 33, (B) 44, (C) 88, (D) 99
Answer: B
Write 5.875 as a mixed number or fraction in simplest form.
(A) 5 and 8 over 9, (B) 5 and 7 over 8, (C) 7 over 8, (D) 5 and 87 over 105
Answer: B
Solve the equation 124 = m + 34.
(A) 158, (B) 90, (C) 88, (D) 4,216
Answer: B
Zelma buys p pounds of bananas for 40 cents per pound. She pays the clerk with a twenty-dollar bill. The clerk subtracts the total cost of the bananas from the twenty-dollar bill to determine the amount of change to give Zelma. Which expression represents the amount of change Zelma should receive?
(A) p - 20, (B) 20 - 40p, (C) 20 - 0.40p, (D) 0.40p - 20
Answer: C
Please answer the following question with just the correct option (A, B, C, or D) without any explanation or additional text.
Suppose A is a 3 × 3 matrix such that det(A − λI) = −λ^3 + 3λ^2 + λ − 3, where I is the 3 × 3 identity matrix. Which of the following are TRUE of A?
I. The trace of A is 3.
II. The determinate of A is −3.
III. The matrix A has eigenvalues −3 and 1.
(A) 'I only', (B) 'II only', (C) 'III only', (D) 'I and II only'
Answer:","","","","","","","","","","","","","","","","","","","","","",""
"","","","","","","","","","","","","","","","","","","","","","","","","","","","","","C","","","","","","","","","","","","","","","","","","",""
"","","","","","","","","","","","","","","","","","","","","","","","","","","","false","0","","false","127","-1","D","false","true","defer","[]","false","0","{""elementary_mathematics"":[""40/50"",""31/50"",""6/7""],""high_school_mathematics"":[""27/50"",""22/50"",""4/6""],""college_mathematics"":[""22/50"",""26/51"",""2/6""]}","{""college_mathematics"":true,""elementary_mathematics"":false,""high_school_mathematics"":false}","You should outsource this problem to the AI agent","null","null","false","null","null",""
"image-keyboard-response","19","1612470","0.0-4.0-2.4","eeabuqfya43up23","65957cc2d41780a47a18bd91","67b62c430b9240ccd8986e70","67b634d847689537fe7571c6","3","null","","","null","","","Suppose A is a 3 × 3 matrix such that det(A − λI) = −λ^3 + 3λ^2 + λ − 3, where I is the 3 × 3 identity matrix. Which of the following are TRUE of A?
I. The trace of A is 3.
II. The determinate of A is −3.
III. The matrix A has eigenvalues −3 and 1.","[""I only"",""II only"",""III only"",""I and II only""]","D","D","modiste","","D","233","algLinUCB_0.9","diff-topics","college_mathematics","The following are multiple choice questions about high_school_mathematics.
Colton and his dad bought a gallon of paint that cost $13. They also bought 2 brushes that cost $9 each. What was the total cost, not including tax, of the brushes and the paint they bought?
(A) $22, (B) $24, (C) $31, (D) $35
Answer: C
Solve for y. y – 2 + 3y = 10
(A) 2, (B) 3, (C) 4, (D) 5
Answer: B
Solve 3 over 2 * w = 66.
(A) 33, (B) 44, (C) 88, (D) 99
Answer: B
Write 5.875 as a mixed number or fraction in simplest form.
(A) 5 and 8 over 9, (B) 5 and 7 over 8, (C) 7 over 8, (D) 5 and 87 over 105
Answer: B
Solve the equation 124 = m + 34.
(A) 158, (B) 90, (C) 88, (D) 4,216
Answer: B
Zelma buys p pounds of bananas for 40 cents per pound. She pays the clerk with a twenty-dollar bill. The clerk subtracts the total cost of the bananas from the twenty-dollar bill to determine the amount of change to give Zelma. Which expression represents the amount of change Zelma should receive?
(A) p - 20, (B) 20 - 40p, (C) 20 - 0.40p, (D) 0.40p - 20
Answer: C
Please answer the following question with just the correct option (A, B, C, or D) without any explanation or additional text.
Suppose A is a 3 × 3 matrix such that det(A − λI) = −λ^3 + 3λ^2 + λ − 3, where I is the 3 × 3 identity matrix. Which of the following are TRUE of A?
I. The trace of A is 3.
II. The determinate of A is −3.
III. The matrix A has eigenvalues −3 and 1.
(A) 'I only', (B) 'II only', (C) 'III only', (D) 'I and II only'
Answer:","","","","","","","","","","","","","","","","","","","","","","feedback_imgs/Incorrect.png"
"call-function","20","1612471","0.0-4.0-0.5","eeabuqfya43up23","65957cc2d41780a47a18bd91","67b62c430b9240ccd8986e70","67b634d847689537fe7571c6","3","","","","","","defer","Write 7 over 33 as a decimal.","[""0.021 repeating"",""0.21 Repeating"",""0.22 Repeating"",""0.2121""]","A","B","modiste","","B","212","algLinUCB_0.9","diff-topics","elementary_mathematics","The following are multiple choice questions about high_school_mathematics.
Colton and his dad bought a gallon of paint that cost $13. They also bought 2 brushes that cost $9 each. What was the total cost, not including tax, of the brushes and the paint they bought?
(A) $22, (B) $24, (C) $31, (D) $35
Answer: C
Solve for y. y – 2 + 3y = 10
(A) 2, (B) 3, (C) 4, (D) 5
Answer: B
Solve 3 over 2 * w = 66.
(A) 33, (B) 44, (C) 88, (D) 99
Answer: B
Write 5.875 as a mixed number or fraction in simplest form.
(A) 5 and 8 over 9, (B) 5 and 7 over 8, (C) 7 over 8, (D) 5 and 87 over 105
Answer: B
Solve the equation 124 = m + 34.
(A) 158, (B) 90, (C) 88, (D) 4,216
Answer: B
Zelma buys p pounds of bananas for 40 cents per pound. She pays the clerk with a twenty-dollar bill. The clerk subtracts the total cost of the bananas from the twenty-dollar bill to determine the amount of change to give Zelma. Which expression represents the amount of change Zelma should receive?
(A) p - 20, (B) 20 - 40p, (C) 20 - 0.40p, (D) 0.40p - 20
Answer: C
Please answer the following question with just the correct option (A, B, C, or D) without any explanation or additional text.
Write 7 over 33 as a decimal.
(A) '0.021 repeating', (B) '0.21 Repeating', (C) '0.22 Repeating', (D) '0.2121'
Answer:","","","","","","","","","","","","","","","","","","","","","",""
"survey-html-form","21","1692059","0.0-4.0-1.5","eeabuqfya43up23","65957cc2d41780a47a18bd91","67b62c430b9240ccd8986e70","67b634d847689537fe7571c6","3","79581","","","{""mcAnswer"":""B""}","","","Write 7 over 33 as a decimal.","[""0.021 repeating"",""0.21 Repeating"",""0.22 Repeating"",""0.2121""]","A","B","modiste","","B","212","algLinUCB_0.9","diff-topics","elementary_mathematics","The following are multiple choice questions about high_school_mathematics.
Colton and his dad bought a gallon of paint that cost $13. They also bought 2 brushes that cost $9 each. What was the total cost, not including tax, of the brushes and the paint they bought?
(A) $22, (B) $24, (C) $31, (D) $35
Answer: C
Solve for y. y – 2 + 3y = 10
(A) 2, (B) 3, (C) 4, (D) 5
Answer: B
Solve 3 over 2 * w = 66.
(A) 33, (B) 44, (C) 88, (D) 99
Answer: B
Write 5.875 as a mixed number or fraction in simplest form.
(A) 5 and 8 over 9, (B) 5 and 7 over 8, (C) 7 over 8, (D) 5 and 87 over 105
Answer: B
Solve the equation 124 = m + 34.
(A) 158, (B) 90, (C) 88, (D) 4,216
Answer: B
Zelma buys p pounds of bananas for 40 cents per pound. She pays the clerk with a twenty-dollar bill. The clerk subtracts the total cost of the bananas from the twenty-dollar bill to determine the amount of change to give Zelma. Which expression represents the amount of change Zelma should receive?
(A) p - 20, (B) 20 - 40p, (C) 20 - 0.40p, (D) 0.40p - 20
Answer: C
Please answer the following question with just the correct option (A, B, C, or D) without any explanation or additional text.
Write 7 over 33 as a decimal.
(A) '0.021 repeating', (B) '0.21 Repeating', (C) '0.22 Repeating', (D) '0.2121'
Answer:","","","","","","","","","","","","","","","","","","","","","",""
"","","","","","","","","","","","","","","","","","","","","","","","","","","","","","B","","","","","","","","","","","","","","","","","","",""
"","","","","","","","","","","","","","","","","","","","","","","","","","","","false","0","","false","137","-1","A","true","false","defer","[]","false","0","{""elementary_mathematics"":[""40/50"",""31/50"",""7/8""],""high_school_mathematics"":[""27/50"",""22/50"",""4/6""],""college_mathematics"":[""22/50"",""26/51"",""2/6""]}","{""college_mathematics"":true,""elementary_mathematics"":false,""high_school_mathematics"":false}","You should attempt this problem by yourself","null","null","null","null","true",""
"image-keyboard-response","22","1693571","0.0-4.0-2.5","eeabuqfya43up23","65957cc2d41780a47a18bd91","67b62c430b9240ccd8986e70","67b634d847689537fe7571c6","3","null","","","null","","","Write 7 over 33 as a decimal.","[""0.021 repeating"",""0.21 Repeating"",""0.22 Repeating"",""0.2121""]","A","B","modiste","","B","212","algLinUCB_0.9","diff-topics","elementary_mathematics","The following are multiple choice questions about high_school_mathematics.
Colton and his dad bought a gallon of paint that cost $13. They also bought 2 brushes that cost $9 each. What was the total cost, not including tax, of the brushes and the paint they bought?
(A) $22, (B) $24, (C) $31, (D) $35
Answer: C
Solve for y. y – 2 + 3y = 10
(A) 2, (B) 3, (C) 4, (D) 5
Answer: B
Solve 3 over 2 * w = 66.
(A) 33, (B) 44, (C) 88, (D) 99
Answer: B
Write 5.875 as a mixed number or fraction in simplest form.
(A) 5 and 8 over 9, (B) 5 and 7 over 8, (C) 7 over 8, (D) 5 and 87 over 105
Answer: B
Solve the equation 124 = m + 34.
(A) 158, (B) 90, (C) 88, (D) 4,216
Answer: B
Zelma buys p pounds of bananas for 40 cents per pound. She pays the clerk with a twenty-dollar bill. The clerk subtracts the total cost of the bananas from the twenty-dollar bill to determine the amount of change to give Zelma. Which expression represents the amount of change Zelma should receive?
(A) p - 20, (B) 20 - 40p, (C) 20 - 0.40p, (D) 0.40p - 20
Answer: C
Please answer the following question with just the correct option (A, B, C, or D) without any explanation or additional text.
Write 7 over 33 as a decimal.
(A) '0.021 repeating', (B) '0.21 Repeating', (C) '0.22 Repeating', (D) '0.2121'
Answer:","","","","","","","","","","","","","","","","","","","","","","feedback_imgs/Correct.png"
"call-function","23","1693573","0.0-4.0-0.6","eeabuqfya43up23","65957cc2d41780a47a18bd91","67b62c430b9240ccd8986e70","67b634d847689537fe7571c6","3","","","","","","defer","Find b if log_{b}343=-3/2.","[""3"",""1/49"",""1/7"",""7""]","C","B","modiste","","B","181","algLinUCB_0.9","diff-topics","high_school_mathematics","The following are multiple choice questions about high_school_mathematics.
Colton and his dad bought a gallon of paint that cost $13. They also bought 2 brushes that cost $9 each. What was the total cost, not including tax, of the brushes and the paint they bought?
(A) $22, (B) $24, (C) $31, (D) $35
Answer: C
Solve for y. y – 2 + 3y = 10
(A) 2, (B) 3, (C) 4, (D) 5
Answer: B
Solve 3 over 2 * w = 66.
(A) 33, (B) 44, (C) 88, (D) 99
Answer: B
Write 5.875 as a mixed number or fraction in simplest form.
(A) 5 and 8 over 9, (B) 5 and 7 over 8, (C) 7 over 8, (D) 5 and 87 over 105
Answer: B
Solve the equation 124 = m + 34.
(A) 158, (B) 90, (C) 88, (D) 4,216
Answer: B
Zelma buys p pounds of bananas for 40 cents per pound. She pays the clerk with a twenty-dollar bill. The clerk subtracts the total cost of the bananas from the twenty-dollar bill to determine the amount of change to give Zelma. Which expression represents the amount of change Zelma should receive?
(A) p - 20, (B) 20 - 40p, (C) 20 - 0.40p, (D) 0.40p - 20
Answer: C
Please answer the following question with just the correct option (A, B, C, or D) without any explanation or additional text.
Find b if log_{b}343=-3/2.
(A) '3', (B) '1/49', (C) '1/7', (D) '7'
Answer:","","","","","","","","","","","","","","","","","","","","","",""
"survey-html-form","24","2195001","0.0-4.0-1.6","eeabuqfya43up23","65957cc2d41780a47a18bd91","67b62c430b9240ccd8986e70","67b634d847689537fe7571c6","3","501421","","","{""mcAnswer"":""D""}","","","Find b if log_{b}343=-3/2.","[""3"",""1/49"",""1/7"",""7""]","C","B","modiste","","B","181","algLinUCB_0.9","diff-topics","high_school_mathematics","The following are multiple choice questions about high_school_mathematics.
Colton and his dad bought a gallon of paint that cost $13. They also bought 2 brushes that cost $9 each. What was the total cost, not including tax, of the brushes and the paint they bought?
(A) $22, (B) $24, (C) $31, (D) $35
Answer: C
Solve for y. y – 2 + 3y = 10
(A) 2, (B) 3, (C) 4, (D) 5
Answer: B
Solve 3 over 2 * w = 66.
(A) 33, (B) 44, (C) 88, (D) 99
Answer: B
Write 5.875 as a mixed number or fraction in simplest form.
(A) 5 and 8 over 9, (B) 5 and 7 over 8, (C) 7 over 8, (D) 5 and 87 over 105
Answer: B
Solve the equation 124 = m + 34.
(A) 158, (B) 90, (C) 88, (D) 4,216
Answer: B
Zelma buys p pounds of bananas for 40 cents per pound. She pays the clerk with a twenty-dollar bill. The clerk subtracts the total cost of the bananas from the twenty-dollar bill to determine the amount of change to give Zelma. Which expression represents the amount of change Zelma should receive?
(A) p - 20, (B) 20 - 40p, (C) 20 - 0.40p, (D) 0.40p - 20
Answer: C
Please answer the following question with just the correct option (A, B, C, or D) without any explanation or additional text.
Find b if log_{b}343=-3/2.
(A) '3', (B) '1/49', (C) '1/7', (D) '7'
Answer:","","","","","","","","","","","","","","","","","","","","","",""
"","","","","","","","","","","","","","","","","","","","","","","","","","","","","","D","","","","","","","","","","","","","","","","","","",""
"","","","","","","","","","","","","","","","","","","","","","","","","","","","false","0","","false","137","-1","C","false","false","defer","[]","false","0","{""elementary_mathematics"":[""40/50"",""31/50"",""7/8""],""high_school_mathematics"":[""27/50"",""22/50"",""4/7""],""college_mathematics"":[""22/50"",""26/51"",""2/6""]}","{""college_mathematics"":true,""elementary_mathematics"":false,""high_school_mathematics"":true}","You should attempt this problem by yourself","null","null","null","null","true",""
"image-keyboard-response","25","2196504","0.0-4.0-2.6","eeabuqfya43up23","65957cc2d41780a47a18bd91","67b62c430b9240ccd8986e70","67b634d847689537fe7571c6","3","null","","","null","","","Find b if log_{b}343=-3/2.","[""3"",""1/49"",""1/7"",""7""]","C","B","modiste","","B","181","algLinUCB_0.9","diff-topics","high_school_mathematics","The following are multiple choice questions about high_school_mathematics.
Colton and his dad bought a gallon of paint that cost $13. They also bought 2 brushes that cost $9 each. What was the total cost, not including tax, of the brushes and the paint they bought?
(A) $22, (B) $24, (C) $31, (D) $35
Answer: C
Solve for y. y – 2 + 3y = 10
(A) 2, (B) 3, (C) 4, (D) 5
Answer: B
Solve 3 over 2 * w = 66.
(A) 33, (B) 44, (C) 88, (D) 99
Answer: B
Write 5.875 as a mixed number or fraction in simplest form.
(A) 5 and 8 over 9, (B) 5 and 7 over 8, (C) 7 over 8, (D) 5 and 87 over 105
Answer: B
Solve the equation 124 = m + 34.
(A) 158, (B) 90, (C) 88, (D) 4,216
Answer: B
Zelma buys p pounds of bananas for 40 cents per pound. She pays the clerk with a twenty-dollar bill. The clerk subtracts the total cost of the bananas from the twenty-dollar bill to determine the amount of change to give Zelma. Which expression represents the amount of change Zelma should receive?
(A) p - 20, (B) 20 - 40p, (C) 20 - 0.40p, (D) 0.40p - 20
Answer: C
Please answer the following question with just the correct option (A, B, C, or D) without any explanation or additional text.
Find b if log_{b}343=-3/2.
(A) '3', (B) '1/49', (C) '1/7', (D) '7'
Answer:","","","","","","","","","","","","","","","","","","","","","","feedback_imgs/Incorrect.png"
"call-function","26","2196505","0.0-4.0-0.7","eeabuqfya43up23","65957cc2d41780a47a18bd91","67b62c430b9240ccd8986e70","67b634d847689537fe7571c6","3","","","","","","defer","Write 60 over 72 in simplest form.","[""4 over 6"",""10 over 12"",""15 over 17"",""5 over 6""]","D","D","modiste","","D","217","algLinUCB_0.9","diff-topics","elementary_mathematics","The following are multiple choice questions about high_school_mathematics.
Colton and his dad bought a gallon of paint that cost $13. They also bought 2 brushes that cost $9 each. What was the total cost, not including tax, of the brushes and the paint they bought?
(A) $22, (B) $24, (C) $31, (D) $35
Answer: C
Solve for y. y – 2 + 3y = 10
(A) 2, (B) 3, (C) 4, (D) 5
Answer: B
Solve 3 over 2 * w = 66.
(A) 33, (B) 44, (C) 88, (D) 99
Answer: B
Write 5.875 as a mixed number or fraction in simplest form.
(A) 5 and 8 over 9, (B) 5 and 7 over 8, (C) 7 over 8, (D) 5 and 87 over 105
Answer: B
Solve the equation 124 = m + 34.
(A) 158, (B) 90, (C) 88, (D) 4,216
Answer: B
Zelma buys p pounds of bananas for 40 cents per pound. She pays the clerk with a twenty-dollar bill. The clerk subtracts the total cost of the bananas from the twenty-dollar bill to determine the amount of change to give Zelma. Which expression represents the amount of change Zelma should receive?
(A) p - 20, (B) 20 - 40p, (C) 20 - 0.40p, (D) 0.40p - 20
Answer: C
Please answer the following question with just the correct option (A, B, C, or D) without any explanation or additional text.
Write 60 over 72 in simplest form.
(A) '4 over 6', (B) '10 over 12', (C) '15 over 17', (D) '5 over 6'
Answer:","","","","","","","","","","","","","","","","","","","","","",""
"survey-html-form","27","2276729","0.0-4.0-1.7","eeabuqfya43up23","65957cc2d41780a47a18bd91","67b62c430b9240ccd8986e70","67b634d847689537fe7571c6","3","80220.69999999925","","","{""mcAnswer"":""D""}","","","Write 60 over 72 in simplest form.","[""4 over 6"",""10 over 12"",""15 over 17"",""5 over 6""]","D","D","modiste","","D","217","algLinUCB_0.9","diff-topics","elementary_mathematics","The following are multiple choice questions about high_school_mathematics.
Colton and his dad bought a gallon of paint that cost $13. They also bought 2 brushes that cost $9 each. What was the total cost, not including tax, of the brushes and the paint they bought?
(A) $22, (B) $24, (C) $31, (D) $35
Answer: C
Solve for y. y – 2 + 3y = 10
(A) 2, (B) 3, (C) 4, (D) 5
Answer: B
Solve 3 over 2 * w = 66.
(A) 33, (B) 44, (C) 88, (D) 99
Answer: B
Write 5.875 as a mixed number or fraction in simplest form.
(A) 5 and 8 over 9, (B) 5 and 7 over 8, (C) 7 over 8, (D) 5 and 87 over 105
Answer: B
Solve the equation 124 = m + 34.
(A) 158, (B) 90, (C) 88, (D) 4,216
Answer: B
Zelma buys p pounds of bananas for 40 cents per pound. She pays the clerk with a twenty-dollar bill. The clerk subtracts the total cost of the bananas from the twenty-dollar bill to determine the amount of change to give Zelma. Which expression represents the amount of change Zelma should receive?
(A) p - 20, (B) 20 - 40p, (C) 20 - 0.40p, (D) 0.40p - 20
Answer: C
Please answer the following question with just the correct option (A, B, C, or D) without any explanation or additional text.
Write 60 over 72 in simplest form.
(A) '4 over 6', (B) '10 over 12', (C) '15 over 17', (D) '5 over 6'
Answer:","","","","","","","","","","","","","","","","","","","","","",""
"","","","","","","","","","","","","","","","","","","","","","","","","","","","","","D","","","","","","","","","","","","","","","","","","",""
"","","","","","","","","","","","","","","","","","","","","","","","","","","","false","0","","false","147","-1","D","true","true","defer","[]","false","0","{""elementary_mathematics"":[""40/50"",""31/50"",""8/9""],""high_school_mathematics"":[""27/50"",""22/50"",""4/7""],""college_mathematics"":[""22/50"",""26/51"",""2/6""]}","{""college_mathematics"":true,""elementary_mathematics"":false,""high_school_mathematics"":true}","You should attempt this problem by yourself","null","null","null","null","true",""
"image-keyboard-response","28","2278237","0.0-4.0-2.7","eeabuqfya43up23","65957cc2d41780a47a18bd91","67b62c430b9240ccd8986e70","67b634d847689537fe7571c6","3","null","","","null","","","Write 60 over 72 in simplest form.","[""4 over 6"",""10 over 12"",""15 over 17"",""5 over 6""]","D","D","modiste","","D","217","algLinUCB_0.9","diff-topics","elementary_mathematics","The following are multiple choice questions about high_school_mathematics.
Colton and his dad bought a gallon of paint that cost $13. They also bought 2 brushes that cost $9 each. What was the total cost, not including tax, of the brushes and the paint they bought?
(A) $22, (B) $24, (C) $31, (D) $35
Answer: C
Solve for y. y – 2 + 3y = 10
(A) 2, (B) 3, (C) 4, (D) 5
Answer: B
Solve 3 over 2 * w = 66.
(A) 33, (B) 44, (C) 88, (D) 99
Answer: B
Write 5.875 as a mixed number or fraction in simplest form.
(A) 5 and 8 over 9, (B) 5 and 7 over 8, (C) 7 over 8, (D) 5 and 87 over 105
Answer: B
Solve the equation 124 = m + 34.
(A) 158, (B) 90, (C) 88, (D) 4,216
Answer: B
Zelma buys p pounds of bananas for 40 cents per pound. She pays the clerk with a twenty-dollar bill. The clerk subtracts the total cost of the bananas from the twenty-dollar bill to determine the amount of change to give Zelma. Which expression represents the amount of change Zelma should receive?
(A) p - 20, (B) 20 - 40p, (C) 20 - 0.40p, (D) 0.40p - 20
Answer: C
Please answer the following question with just the correct option (A, B, C, or D) without any explanation or additional text.
Write 60 over 72 in simplest form.
(A) '4 over 6', (B) '10 over 12', (C) '15 over 17', (D) '5 over 6'
Answer:","","","","","","","","","","","","","","","","","","","","","","feedback_imgs/Correct.png"
"call-function","29","2278238","0.0-4.0-0.8","eeabuqfya43up23","65957cc2d41780a47a18bd91","67b62c430b9240ccd8986e70","67b634d847689537fe7571c6","3","","","","","","defer","Bacteria in a culture increase at a rate proportional to the number present. An initial population of 200 triples in 10 hours. If this pattern of increase continues unabated, then the approximate number of bacteria after 1 full day is","[""1160"",""1440"",""2408"",""2793""]","B","C","modiste","","D","185","algLinUCB_0.9","diff-topics","high_school_mathematics","The following are multiple choice questions about high_school_mathematics.
Colton and his dad bought a gallon of paint that cost $13. They also bought 2 brushes that cost $9 each. What was the total cost, not including tax, of the brushes and the paint they bought?
(A) $22, (B) $24, (C) $31, (D) $35
Answer: C
Solve for y. y – 2 + 3y = 10
(A) 2, (B) 3, (C) 4, (D) 5
Answer: B
Solve 3 over 2 * w = 66.
(A) 33, (B) 44, (C) 88, (D) 99
Answer: B
Write 5.875 as a mixed number or fraction in simplest form.
(A) 5 and 8 over 9, (B) 5 and 7 over 8, (C) 7 over 8, (D) 5 and 87 over 105
Answer: B
Solve the equation 124 = m + 34.
(A) 158, (B) 90, (C) 88, (D) 4,216
Answer: B
Zelma buys p pounds of bananas for 40 cents per pound. She pays the clerk with a twenty-dollar bill. The clerk subtracts the total cost of the bananas from the twenty-dollar bill to determine the amount of change to give Zelma. Which expression represents the amount of change Zelma should receive?
(A) p - 20, (B) 20 - 40p, (C) 20 - 0.40p, (D) 0.40p - 20
Answer: C
Please answer the following question with just the correct option (A, B, C, or D) without any explanation or additional text.
Bacteria in a culture increase at a rate proportional to the number present. An initial population of 200 triples in 10 hours. If this pattern of increase continues unabated, then the approximate number of bacteria after 1 full day is
(A) '1160', (B) '1440', (C) '2408', (D) '2793'
Answer:","","","","","","","","","","","","true","2","","","","","","","","",""
"survey-html-form","30","2575032","0.0-4.0-1.8","eeabuqfya43up23","65957cc2d41780a47a18bd91","67b62c430b9240ccd8986e70","67b634d847689537fe7571c6","3","296787.5","","","{""mcAnswer"":""B""}","","","Bacteria in a culture increase at a rate proportional to the number present. An initial population of 200 triples in 10 hours. If this pattern of increase continues unabated, then the approximate number of bacteria after 1 full day is","[""1160"",""1440"",""2408"",""2793""]","B","C","modiste","","D","185","algLinUCB_0.9","diff-topics","high_school_mathematics","The following are multiple choice questions about high_school_mathematics.
Colton and his dad bought a gallon of paint that cost $13. They also bought 2 brushes that cost $9 each. What was the total cost, not including tax, of the brushes and the paint they bought?
(A) $22, (B) $24, (C) $31, (D) $35
Answer: C
Solve for y. y – 2 + 3y = 10
(A) 2, (B) 3, (C) 4, (D) 5
Answer: B
Solve 3 over 2 * w = 66.
(A) 33, (B) 44, (C) 88, (D) 99
Answer: B
Write 5.875 as a mixed number or fraction in simplest form.
(A) 5 and 8 over 9, (B) 5 and 7 over 8, (C) 7 over 8, (D) 5 and 87 over 105
Answer: B
Solve the equation 124 = m + 34.
(A) 158, (B) 90, (C) 88, (D) 4,216
Answer: B
Zelma buys p pounds of bananas for 40 cents per pound. She pays the clerk with a twenty-dollar bill. The clerk subtracts the total cost of the bananas from the twenty-dollar bill to determine the amount of change to give Zelma. Which expression represents the amount of change Zelma should receive?
(A) p - 20, (B) 20 - 40p, (C) 20 - 0.40p, (D) 0.40p - 20
Answer: C
Please answer the following question with just the correct option (A, B, C, or D) without any explanation or additional text.
Bacteria in a culture increase at a rate proportional to the number present. An initial population of 200 triples in 10 hours. If this pattern of increase continues unabated, then the approximate number of bacteria after 1 full day is
(A) '1160', (B) '1440', (C) '2408', (D) '2793'
Answer:","","","","","","","","","","","","","","","","","","","","","",""
"","","","","","","","","","","","","","","","","","","","","","","","","","","","","","B","","","","","","","","","","","","","","","","","","",""
"","","","","","","","","","","","","","","","","","","","","","","","","","","","false","0","","false","140","-1","B","false","false","defer","[]","true","2","{""elementary_mathematics"":[""40/50"",""31/50"",""8/9""],""high_school_mathematics"":[""27/51"",""22/50"",""4/7""],""college_mathematics"":[""22/50"",""26/51"",""2/6""]}","{""college_mathematics"":true,""elementary_mathematics"":false,""high_school_mathematics"":false}","You were wrong by yourself on high_school_mathematics last time. You should outsource this problem to a human agent","null","true","null","true","null",""
"image-keyboard-response","31","2576549","0.0-4.0-2.8","eeabuqfya43up23","65957cc2d41780a47a18bd91","67b62c430b9240ccd8986e70","67b634d847689537fe7571c6","3","null","","","null","","","Bacteria in a culture increase at a rate proportional to the number present. An initial population of 200 triples in 10 hours. If this pattern of increase continues unabated, then the approximate number of bacteria after 1 full day is","[""1160"",""1440"",""2408"",""2793""]","B","C","modiste","","D","185","algLinUCB_0.9","diff-topics","high_school_mathematics","The following are multiple choice questions about high_school_mathematics.
Colton and his dad bought a gallon of paint that cost $13. They also bought 2 brushes that cost $9 each. What was the total cost, not including tax, of the brushes and the paint they bought?
(A) $22, (B) $24, (C) $31, (D) $35
Answer: C
Solve for y. y – 2 + 3y = 10
(A) 2, (B) 3, (C) 4, (D) 5
Answer: B
Solve 3 over 2 * w = 66.
(A) 33, (B) 44, (C) 88, (D) 99
Answer: B
Write 5.875 as a mixed number or fraction in simplest form.
(A) 5 and 8 over 9, (B) 5 and 7 over 8, (C) 7 over 8, (D) 5 and 87 over 105
Answer: B
Solve the equation 124 = m + 34.
(A) 158, (B) 90, (C) 88, (D) 4,216
Answer: B
Zelma buys p pounds of bananas for 40 cents per pound. She pays the clerk with a twenty-dollar bill. The clerk subtracts the total cost of the bananas from the twenty-dollar bill to determine the amount of change to give Zelma. Which expression represents the amount of change Zelma should receive?
(A) p - 20, (B) 20 - 40p, (C) 20 - 0.40p, (D) 0.40p - 20
Answer: C
Please answer the following question with just the correct option (A, B, C, or D) without any explanation or additional text.
Bacteria in a culture increase at a rate proportional to the number present. An initial population of 200 triples in 10 hours. If this pattern of increase continues unabated, then the approximate number of bacteria after 1 full day is
(A) '1160', (B) '1440', (C) '2408', (D) '2793'
Answer:","","","","","","","","","","","","","","","","","","","","","","feedback_imgs/Incorrect.png"
"call-function","32","2576551","0.0-4.0-0.9","eeabuqfya43up23","65957cc2d41780a47a18bd91","67b62c430b9240ccd8986e70","67b634d847689537fe7571c6","3","","","","","","defer","How many years are there in a decade?","[""5"",""10"",""15"",""20""]","B","B","modiste","","B","201","algLinUCB_0.9","diff-topics","elementary_mathematics","The following are multiple choice questions about high_school_mathematics.
Colton and his dad bought a gallon of paint that cost $13. They also bought 2 brushes that cost $9 each. What was the total cost, not including tax, of the brushes and the paint they bought?
(A) $22, (B) $24, (C) $31, (D) $35
Answer: C
Solve for y. y – 2 + 3y = 10
(A) 2, (B) 3, (C) 4, (D) 5
Answer: B
Solve 3 over 2 * w = 66.
(A) 33, (B) 44, (C) 88, (D) 99
Answer: B
Write 5.875 as a mixed number or fraction in simplest form.
(A) 5 and 8 over 9, (B) 5 and 7 over 8, (C) 7 over 8, (D) 5 and 87 over 105
Answer: B
Solve the equation 124 = m + 34.
(A) 158, (B) 90, (C) 88, (D) 4,216
Answer: B
Zelma buys p pounds of bananas for 40 cents per pound. She pays the clerk with a twenty-dollar bill. The clerk subtracts the total cost of the bananas from the twenty-dollar bill to determine the amount of change to give Zelma. Which expression represents the amount of change Zelma should receive?
(A) p - 20, (B) 20 - 40p, (C) 20 - 0.40p, (D) 0.40p - 20
Answer: C
Please answer the following question with just the correct option (A, B, C, or D) without any explanation or additional text.
How many years are there in a decade?
(A) '5', (B) '10', (C) '15', (D) '20'
Answer:","","","","","","","","","","","","","","","","","","","","","",""
"survey-html-form","33","2594112","0.0-4.0-1.9","eeabuqfya43up23","65957cc2d41780a47a18bd91","67b62c430b9240ccd8986e70","67b634d847689537fe7571c6","3","17554.60000000149","","","{""mcAnswer"":""B""}","","","How many years are there in a decade?","[""5"",""10"",""15"",""20""]","B","B","modiste","","B","201","algLinUCB_0.9","diff-topics","elementary_mathematics","The following are multiple choice questions about high_school_mathematics.
Colton and his dad bought a gallon of paint that cost $13. They also bought 2 brushes that cost $9 each. What was the total cost, not including tax, of the brushes and the paint they bought?
(A) $22, (B) $24, (C) $31, (D) $35
Answer: C
Solve for y. y – 2 + 3y = 10
(A) 2, (B) 3, (C) 4, (D) 5
Answer: B
Solve 3 over 2 * w = 66.
(A) 33, (B) 44, (C) 88, (D) 99
Answer: B
Write 5.875 as a mixed number or fraction in simplest form.
(A) 5 and 8 over 9, (B) 5 and 7 over 8, (C) 7 over 8, (D) 5 and 87 over 105
Answer: B
Solve the equation 124 = m + 34.
(A) 158, (B) 90, (C) 88, (D) 4,216
Answer: B
Zelma buys p pounds of bananas for 40 cents per pound. She pays the clerk with a twenty-dollar bill. The clerk subtracts the total cost of the bananas from the twenty-dollar bill to determine the amount of change to give Zelma. Which expression represents the amount of change Zelma should receive?
(A) p - 20, (B) 20 - 40p, (C) 20 - 0.40p, (D) 0.40p - 20
Answer: C
Please answer the following question with just the correct option (A, B, C, or D) without any explanation or additional text.
How many years are there in a decade?
(A) '5', (B) '10', (C) '15', (D) '20'
Answer:","","","","","","","","","","","","","","","","","","","","","",""
"","","","","","","","","","","","","","","","","","","","","","","","","","","","","","B","","","","","","","","","","","","","","","","","","",""
"","","","","","","","","","","","","","","","","","","","","","","","","","","","false","0","","false","150","-1","B","true","true","defer","[]","false","0","{""elementary_mathematics"":[""40/50"",""31/50"",""9/10""],""high_school_mathematics"":[""27/51"",""22/50"",""4/7""],""college_mathematics"":[""22/50"",""26/51"",""2/6""]}","{""college_mathematics"":true,""elementary_mathematics"":false,""high_school_mathematics"":false}","You should attempt this problem by yourself","null","null","null","null","true",""
"image-keyboard-response","34","2595627","0.0-4.0-2.9","eeabuqfya43up23","65957cc2d41780a47a18bd91","67b62c430b9240ccd8986e70","67b634d847689537fe7571c6","3","null","","","null","","","How many years are there in a decade?","[""5"",""10"",""15"",""20""]","B","B","modiste","","B","201","algLinUCB_0.9","diff-topics","elementary_mathematics","The following are multiple choice questions about high_school_mathematics.
Colton and his dad bought a gallon of paint that cost $13. They also bought 2 brushes that cost $9 each. What was the total cost, not including tax, of the brushes and the paint they bought?
(A) $22, (B) $24, (C) $31, (D) $35
Answer: C
Solve for y. y – 2 + 3y = 10
(A) 2, (B) 3, (C) 4, (D) 5
Answer: B
Solve 3 over 2 * w = 66.
(A) 33, (B) 44, (C) 88, (D) 99
Answer: B
Write 5.875 as a mixed number or fraction in simplest form.
(A) 5 and 8 over 9, (B) 5 and 7 over 8, (C) 7 over 8, (D) 5 and 87 over 105
Answer: B
Solve the equation 124 = m + 34.
(A) 158, (B) 90, (C) 88, (D) 4,216
Answer: B
Zelma buys p pounds of bananas for 40 cents per pound. She pays the clerk with a twenty-dollar bill. The clerk subtracts the total cost of the bananas from the twenty-dollar bill to determine the amount of change to give Zelma. Which expression represents the amount of change Zelma should receive?
(A) p - 20, (B) 20 - 40p, (C) 20 - 0.40p, (D) 0.40p - 20
Answer: C
Please answer the following question with just the correct option (A, B, C, or D) without any explanation or additional text.
How many years are there in a decade?
(A) '5', (B) '10', (C) '15', (D) '20'
Answer:","","","","","","","","","","","","","","","","","","","","","","feedback_imgs/Correct.png"
"call-function","35","2595629","0.0-4.0-0.10","eeabuqfya43up23","65957cc2d41780a47a18bd91","67b62c430b9240ccd8986e70","67b634d847689537fe7571c6","3","","","","","","defer","The Mills Library has 1,007,199 books. The Springvale Library has 907,082 books. Which of the following is the best estimate of how many more books the Mills Library has than the Springvale Library?","[""100,000 books"",""80,000 books"",""10,000 books"",""8,000 books""]","A","A","modiste","","A","219","algLinUCB_0.9","diff-topics","elementary_mathematics","The following are multiple choice questions about high_school_mathematics.
Colton and his dad bought a gallon of paint that cost $13. They also bought 2 brushes that cost $9 each. What was the total cost, not including tax, of the brushes and the paint they bought?
(A) $22, (B) $24, (C) $31, (D) $35
Answer: C
Solve for y. y – 2 + 3y = 10
(A) 2, (B) 3, (C) 4, (D) 5
Answer: B
Solve 3 over 2 * w = 66.
(A) 33, (B) 44, (C) 88, (D) 99
Answer: B
Write 5.875 as a mixed number or fraction in simplest form.
(A) 5 and 8 over 9, (B) 5 and 7 over 8, (C) 7 over 8, (D) 5 and 87 over 105
Answer: B
Solve the equation 124 = m + 34.
(A) 158, (B) 90, (C) 88, (D) 4,216
Answer: B
Zelma buys p pounds of bananas for 40 cents per pound. She pays the clerk with a twenty-dollar bill. The clerk subtracts the total cost of the bananas from the twenty-dollar bill to determine the amount of change to give Zelma. Which expression represents the amount of change Zelma should receive?
(A) p - 20, (B) 20 - 40p, (C) 20 - 0.40p, (D) 0.40p - 20
Answer: C
Please answer the following question with just the correct option (A, B, C, or D) without any explanation or additional text.
The Mills Library has 1,007,199 books. The Springvale Library has 907,082 books. Which of the following is the best estimate of how many more books the Mills Library has than the Springvale Library?
(A) '100,000 books', (B) '80,000 books', (C) '10,000 books', (D) '8,000 books'
Answer:","","","","","","","","","","","","","","","","","","","","","",""
"survey-html-form","36","2705248","0.0-4.0-1.10","eeabuqfya43up23","65957cc2d41780a47a18bd91","67b62c430b9240ccd8986e70","67b634d847689537fe7571c6","3","109612.5","","","{""mcAnswer"":""A""}","","","The Mills Library has 1,007,199 books. The Springvale Library has 907,082 books. Which of the following is the best estimate of how many more books the Mills Library has than the Springvale Library?","[""100,000 books"",""80,000 books"",""10,000 books"",""8,000 books""]","A","A","modiste","","A","219","algLinUCB_0.9","diff-topics","elementary_mathematics","The following are multiple choice questions about high_school_mathematics.
Colton and his dad bought a gallon of paint that cost $13. They also bought 2 brushes that cost $9 each. What was the total cost, not including tax, of the brushes and the paint they bought?
(A) $22, (B) $24, (C) $31, (D) $35
Answer: C
Solve for y. y – 2 + 3y = 10
(A) 2, (B) 3, (C) 4, (D) 5
Answer: B
Solve 3 over 2 * w = 66.
(A) 33, (B) 44, (C) 88, (D) 99
Answer: B
Write 5.875 as a mixed number or fraction in simplest form.
(A) 5 and 8 over 9, (B) 5 and 7 over 8, (C) 7 over 8, (D) 5 and 87 over 105
Answer: B
Solve the equation 124 = m + 34.
(A) 158, (B) 90, (C) 88, (D) 4,216
Answer: B
Zelma buys p pounds of bananas for 40 cents per pound. She pays the clerk with a twenty-dollar bill. The clerk subtracts the total cost of the bananas from the twenty-dollar bill to determine the amount of change to give Zelma. Which expression represents the amount of change Zelma should receive?
(A) p - 20, (B) 20 - 40p, (C) 20 - 0.40p, (D) 0.40p - 20
Answer: C
Please answer the following question with just the correct option (A, B, C, or D) without any explanation or additional text.
The Mills Library has 1,007,199 books. The Springvale Library has 907,082 books. Which of the following is the best estimate of how many more books the Mills Library has than the Springvale Library?
(A) '100,000 books', (B) '80,000 books', (C) '10,000 books', (D) '8,000 books'
Answer:","","","","","","","","","","","","","","","","","","","","","",""
"","","","","","","","","","","","","","","","","","","","","","","","","","","","","","A","","","","","","","","","","","","","","","","","","",""
"","","","","","","","","","","","","","","","","","","","","","","","","","","","false","0","","false","160","-1","A","true","true","defer","[]","false","0","{""elementary_mathematics"":[""40/50"",""31/50"",""10/11""],""high_school_mathematics"":[""27/51"",""22/50"",""4/7""],""college_mathematics"":[""22/50"",""26/51"",""2/6""]}","{""college_mathematics"":true,""elementary_mathematics"":false,""high_school_mathematics"":false}","You should attempt this problem by yourself","null","null","null","null","true",""
"image-keyboard-response","37","2706750","0.0-4.0-2.10","eeabuqfya43up23","65957cc2d41780a47a18bd91","67b62c430b9240ccd8986e70","67b634d847689537fe7571c6","3","null","","","null","","","The Mills Library has 1,007,199 books. The Springvale Library has 907,082 books. Which of the following is the best estimate of how many more books the Mills Library has than the Springvale Library?","[""100,000 books"",""80,000 books"",""10,000 books"",""8,000 books""]","A","A","modiste","","A","219","algLinUCB_0.9","diff-topics","elementary_mathematics","The following are multiple choice questions about high_school_mathematics.
Colton and his dad bought a gallon of paint that cost $13. They also bought 2 brushes that cost $9 each. What was the total cost, not including tax, of the brushes and the paint they bought?
(A) $22, (B) $24, (C) $31, (D) $35
Answer: C
Solve for y. y – 2 + 3y = 10
(A) 2, (B) 3, (C) 4, (D) 5
Answer: B
Solve 3 over 2 * w = 66.
(A) 33, (B) 44, (C) 88, (D) 99
Answer: B
Write 5.875 as a mixed number or fraction in simplest form.
(A) 5 and 8 over 9, (B) 5 and 7 over 8, (C) 7 over 8, (D) 5 and 87 over 105
Answer: B
Solve the equation 124 = m + 34.
(A) 158, (B) 90, (C) 88, (D) 4,216
Answer: B
Zelma buys p pounds of bananas for 40 cents per pound. She pays the clerk with a twenty-dollar bill. The clerk subtracts the total cost of the bananas from the twenty-dollar bill to determine the amount of change to give Zelma. Which expression represents the amount of change Zelma should receive?
(A) p - 20, (B) 20 - 40p, (C) 20 - 0.40p, (D) 0.40p - 20
Answer: C
Please answer the following question with just the correct option (A, B, C, or D) without any explanation or additional text.
The Mills Library has 1,007,199 books. The Springvale Library has 907,082 books. Which of the following is the best estimate of how many more books the Mills Library has than the Springvale Library?
(A) '100,000 books', (B) '80,000 books', (C) '10,000 books', (D) '8,000 books'
Answer:","","","","","","","","","","","","","","","","","","","","","","feedback_imgs/Correct.png"
"call-function","38","2706751","0.0-4.0-0.11","eeabuqfya43up23","65957cc2d41780a47a18bd91","67b62c430b9240ccd8986e70","67b634d847689537fe7571c6","3","","","","","","defer","Statement 1 | If A is connected, the closure of A must be connected. Statement 2 | Every continuous function f : (0, 1) → (0, 1) has a fixed point.","[""True, True"",""True, False"",""False, True"",""False, False""]","C","B","modiste","","B","239","algLinUCB_0.9","diff-topics","college_mathematics","The following are multiple choice questions about high_school_mathematics.
Colton and his dad bought a gallon of paint that cost $13. They also bought 2 brushes that cost $9 each. What was the total cost, not including tax, of the brushes and the paint they bought?
(A) $22, (B) $24, (C) $31, (D) $35
Answer: C
Solve for y. y – 2 + 3y = 10
(A) 2, (B) 3, (C) 4, (D) 5
Answer: B
Solve 3 over 2 * w = 66.
(A) 33, (B) 44, (C) 88, (D) 99
Answer: B
Write 5.875 as a mixed number or fraction in simplest form.
(A) 5 and 8 over 9, (B) 5 and 7 over 8, (C) 7 over 8, (D) 5 and 87 over 105
Answer: B
Solve the equation 124 = m + 34.
(A) 158, (B) 90, (C) 88, (D) 4,216
Answer: B
Zelma buys p pounds of bananas for 40 cents per pound. She pays the clerk with a twenty-dollar bill. The clerk subtracts the total cost of the bananas from the twenty-dollar bill to determine the amount of change to give Zelma. Which expression represents the amount of change Zelma should receive?
(A) p - 20, (B) 20 - 40p, (C) 20 - 0.40p, (D) 0.40p - 20
Answer: C
Please answer the following question with just the correct option (A, B, C, or D) without any explanation or additional text.
Statement 1 | If A is connected, the closure of A must be connected. Statement 2 | Every continuous function f : (0, 1) → (0, 1) has a fixed point.
(A) 'True, True', (B) 'True, False', (C) 'False, True', (D) 'False, False'
Answer:","true","2","","","","","","","","","","","","","","","","","","","",""
"survey-html-form","39","2756831","0.0-4.0-1.11","eeabuqfya43up23","65957cc2d41780a47a18bd91","67b62c430b9240ccd8986e70","67b634d847689537fe7571c6","3","50073.89999999851","","","{""mcAnswer"":""C""}","","","Statement 1 | If A is connected, the closure of A must be connected. Statement 2 | Every continuous function f : (0, 1) → (0, 1) has a fixed point.","[""True, True"",""True, False"",""False, True"",""False, False""]","C","B","modiste","","B","239","algLinUCB_0.9","diff-topics","college_mathematics","The following are multiple choice questions about high_school_mathematics.
Colton and his dad bought a gallon of paint that cost $13. They also bought 2 brushes that cost $9 each. What was the total cost, not including tax, of the brushes and the paint they bought?
(A) $22, (B) $24, (C) $31, (D) $35
Answer: C
Solve for y. y – 2 + 3y = 10
(A) 2, (B) 3, (C) 4, (D) 5
Answer: B
Solve 3 over 2 * w = 66.
(A) 33, (B) 44, (C) 88, (D) 99
Answer: B
Write 5.875 as a mixed number or fraction in simplest form.
(A) 5 and 8 over 9, (B) 5 and 7 over 8, (C) 7 over 8, (D) 5 and 87 over 105
Answer: B
Solve the equation 124 = m + 34.
(A) 158, (B) 90, (C) 88, (D) 4,216
Answer: B
Zelma buys p pounds of bananas for 40 cents per pound. She pays the clerk with a twenty-dollar bill. The clerk subtracts the total cost of the bananas from the twenty-dollar bill to determine the amount of change to give Zelma. Which expression represents the amount of change Zelma should receive?
(A) p - 20, (B) 20 - 40p, (C) 20 - 0.40p, (D) 0.40p - 20
Answer: C
Please answer the following question with just the correct option (A, B, C, or D) without any explanation or additional text.
Statement 1 | If A is connected, the closure of A must be connected. Statement 2 | Every continuous function f : (0, 1) → (0, 1) has a fixed point.
(A) 'True, True', (B) 'True, False', (C) 'False, True', (D) 'False, False'
Answer:","","","","","","","","","","","","","","","","","","","","","",""
"","","","","","","","","","","","","","","","","","","","","","","","","","","","","","C","","","","","","","","","","","","","","","","","","",""
"","","","","","","","","","","","","","","","","","","","","","","","","","","","true","2","","false","157","-1","C","false","false","defer","[]","false","0","{""elementary_mathematics"":[""40/50"",""31/50"",""10/11""],""high_school_mathematics"":[""27/51"",""22/50"",""4/7""],""college_mathematics"":[""22/50"",""26/52"",""2/6""]}","{""college_mathematics"":false,""elementary_mathematics"":false,""high_school_mathematics"":false}","You were wrong by yourself on college_mathematics last time. You should outsource this problem to the AI agent","false","null","true","null","null",""
"image-keyboard-response","40","2758333","0.0-4.0-2.11","eeabuqfya43up23","65957cc2d41780a47a18bd91","67b62c430b9240ccd8986e70","67b634d847689537fe7571c6","3","null","","","null","","","Statement 1 | If A is connected, the closure of A must be connected. Statement 2 | Every continuous function f : (0, 1) → (0, 1) has a fixed point.","[""True, True"",""True, False"",""False, True"",""False, False""]","C","B","modiste","","B","239","algLinUCB_0.9","diff-topics","college_mathematics","The following are multiple choice questions about high_school_mathematics.
Colton and his dad bought a gallon of paint that cost $13. They also bought 2 brushes that cost $9 each. What was the total cost, not including tax, of the brushes and the paint they bought?
(A) $22, (B) $24, (C) $31, (D) $35
Answer: C
Solve for y. y – 2 + 3y = 10
(A) 2, (B) 3, (C) 4, (D) 5
Answer: B
Solve 3 over 2 * w = 66.
(A) 33, (B) 44, (C) 88, (D) 99
Answer: B
Write 5.875 as a mixed number or fraction in simplest form.
(A) 5 and 8 over 9, (B) 5 and 7 over 8, (C) 7 over 8, (D) 5 and 87 over 105
Answer: B
Solve the equation 124 = m + 34.
(A) 158, (B) 90, (C) 88, (D) 4,216
Answer: B
Zelma buys p pounds of bananas for 40 cents per pound. She pays the clerk with a twenty-dollar bill. The clerk subtracts the total cost of the bananas from the twenty-dollar bill to determine the amount of change to give Zelma. Which expression represents the amount of change Zelma should receive?
(A) p - 20, (B) 20 - 40p, (C) 20 - 0.40p, (D) 0.40p - 20
Answer: C
Please answer the following question with just the correct option (A, B, C, or D) without any explanation or additional text.
Statement 1 | If A is connected, the closure of A must be connected. Statement 2 | Every continuous function f : (0, 1) → (0, 1) has a fixed point.
(A) 'True, True', (B) 'True, False', (C) 'False, True', (D) 'False, False'
Answer:","","","","","","","","","","","","","","","","","","","","","","feedback_imgs/Incorrect.png"
"call-function","41","2758335","0.0-4.0-0.12","eeabuqfya43up23","65957cc2d41780a47a18bd91","67b62c430b9240ccd8986e70","67b634d847689537fe7571c6","3","","","","","","defer","How many real roots does the polynomial 2x^5 + 8x - 7 have?","[""None"",""One"",""Two"",""Three""]","B","B","modiste","","B","220","algLinUCB_0.9","diff-topics","college_mathematics","The following are multiple choice questions about high_school_mathematics.
Colton and his dad bought a gallon of paint that cost $13. They also bought 2 brushes that cost $9 each. What was the total cost, not including tax, of the brushes and the paint they bought?
(A) $22, (B) $24, (C) $31, (D) $35
Answer: C
Solve for y. y – 2 + 3y = 10
(A) 2, (B) 3, (C) 4, (D) 5
Answer: B
Solve 3 over 2 * w = 66.
(A) 33, (B) 44, (C) 88, (D) 99
Answer: B
Write 5.875 as a mixed number or fraction in simplest form.
(A) 5 and 8 over 9, (B) 5 and 7 over 8, (C) 7 over 8, (D) 5 and 87 over 105
Answer: B
Solve the equation 124 = m + 34.
(A) 158, (B) 90, (C) 88, (D) 4,216
Answer: B
Zelma buys p pounds of bananas for 40 cents per pound. She pays the clerk with a twenty-dollar bill. The clerk subtracts the total cost of the bananas from the twenty-dollar bill to determine the amount of change to give Zelma. Which expression represents the amount of change Zelma should receive?
(A) p - 20, (B) 20 - 40p, (C) 20 - 0.40p, (D) 0.40p - 20
Answer: C
Please answer the following question with just the correct option (A, B, C, or D) without any explanation or additional text.
How many real roots does the polynomial 2x^5 + 8x - 7 have?
(A) 'None', (B) 'One', (C) 'Two', (D) 'Three'
Answer:","true","2","","","","","","","","","","","","","","","","","","","",""
"survey-html-form","42","2782911","0.0-4.0-1.12","eeabuqfya43up23","65957cc2d41780a47a18bd91","67b62c430b9240ccd8986e70","67b634d847689537fe7571c6","3","24568.10000000149","","","{""mcAnswer"":""B""}","","","How many real roots does the polynomial 2x^5 + 8x - 7 have?","[""None"",""One"",""Two"",""Three""]","B","B","modiste","","B","220","algLinUCB_0.9","diff-topics","college_mathematics","The following are multiple choice questions about high_school_mathematics.
Colton and his dad bought a gallon of paint that cost $13. They also bought 2 brushes that cost $9 each. What was the total cost, not including tax, of the brushes and the paint they bought?
(A) $22, (B) $24, (C) $31, (D) $35
Answer: C
Solve for y. y – 2 + 3y = 10
(A) 2, (B) 3, (C) 4, (D) 5
Answer: B
Solve 3 over 2 * w = 66.
(A) 33, (B) 44, (C) 88, (D) 99
Answer: B
Write 5.875 as a mixed number or fraction in simplest form.
(A) 5 and 8 over 9, (B) 5 and 7 over 8, (C) 7 over 8, (D) 5 and 87 over 105
Answer: B
Solve the equation 124 = m + 34.
(A) 158, (B) 90, (C) 88, (D) 4,216
Answer: B
Zelma buys p pounds of bananas for 40 cents per pound. She pays the clerk with a twenty-dollar bill. The clerk subtracts the total cost of the bananas from the twenty-dollar bill to determine the amount of change to give Zelma. Which expression represents the amount of change Zelma should receive?
(A) p - 20, (B) 20 - 40p, (C) 20 - 0.40p, (D) 0.40p - 20
Answer: C
Please answer the following question with just the correct option (A, B, C, or D) without any explanation or additional text.
How many real roots does the polynomial 2x^5 + 8x - 7 have?
(A) 'None', (B) 'One', (C) 'Two', (D) 'Three'
Answer:","","","","","","","","","","","","","","","","","","","","","",""
"","","","","","","","","","","","","","","","","","","","","","","","","","","","","","B","","","","","","","","","","","","","","","","","","",""
"","","","","","","","","","","","","","","","","","","","","","","","","","","","true","2","","false","164","-1","B","true","true","defer","[]","false","0","{""elementary_mathematics"":[""40/50"",""31/50"",""10/11""],""high_school_mathematics"":[""27/51"",""22/50"",""4/7""],""college_mathematics"":[""22/50"",""27/53"",""2/6""]}","{""college_mathematics"":false,""elementary_mathematics"":false,""high_school_mathematics"":false}","You should outsource this problem to the AI agent","false","null","true","null","null",""
"image-keyboard-response","43","2784414","0.0-4.0-2.12","eeabuqfya43up23","65957cc2d41780a47a18bd91","67b62c430b9240ccd8986e70","67b634d847689537fe7571c6","3","null","","","null","","","How many real roots does the polynomial 2x^5 + 8x - 7 have?","[""None"",""One"",""Two"",""Three""]","B","B","modiste","","B","220","algLinUCB_0.9","diff-topics","college_mathematics","The following are multiple choice questions about high_school_mathematics.
Colton and his dad bought a gallon of paint that cost $13. They also bought 2 brushes that cost $9 each. What was the total cost, not including tax, of the brushes and the paint they bought?
(A) $22, (B) $24, (C) $31, (D) $35
Answer: C
Solve for y. y – 2 + 3y = 10
(A) 2, (B) 3, (C) 4, (D) 5
Answer: B
Solve 3 over 2 * w = 66.
(A) 33, (B) 44, (C) 88, (D) 99
Answer: B
Write 5.875 as a mixed number or fraction in simplest form.
(A) 5 and 8 over 9, (B) 5 and 7 over 8, (C) 7 over 8, (D) 5 and 87 over 105
Answer: B
Solve the equation 124 = m + 34.
(A) 158, (B) 90, (C) 88, (D) 4,216
Answer: B
Zelma buys p pounds of bananas for 40 cents per pound. She pays the clerk with a twenty-dollar bill. The clerk subtracts the total cost of the bananas from the twenty-dollar bill to determine the amount of change to give Zelma. Which expression represents the amount of change Zelma should receive?
(A) p - 20, (B) 20 - 40p, (C) 20 - 0.40p, (D) 0.40p - 20
Answer: C
Please answer the following question with just the correct option (A, B, C, or D) without any explanation or additional text.
How many real roots does the polynomial 2x^5 + 8x - 7 have?
(A) 'None', (B) 'One', (C) 'Two', (D) 'Three'
Answer:","","","","","","","","","","","","","","","","","","","","","","feedback_imgs/Correct.png"
"call-function","44","2784416","0.0-4.0-0.13","eeabuqfya43up23","65957cc2d41780a47a18bd91","67b62c430b9240ccd8986e70","67b634d847689537fe7571c6","3","","","","","","defer","Solve for the sum of all possible values of x when 3^{x^2+4x+4}=9^{x+2}.","[""1"",""2"",""-2"",""0""]","C","C","modiste","","C","184","algLinUCB_0.9","diff-topics","high_school_mathematics","The following are multiple choice questions about high_school_mathematics.
Colton and his dad bought a gallon of paint that cost $13. They also bought 2 brushes that cost $9 each. What was the total cost, not including tax, of the brushes and the paint they bought?
(A) $22, (B) $24, (C) $31, (D) $35
Answer: C
Solve for y. y – 2 + 3y = 10
(A) 2, (B) 3, (C) 4, (D) 5
Answer: B
Solve 3 over 2 * w = 66.
(A) 33, (B) 44, (C) 88, (D) 99
Answer: B
Write 5.875 as a mixed number or fraction in simplest form.
(A) 5 and 8 over 9, (B) 5 and 7 over 8, (C) 7 over 8, (D) 5 and 87 over 105
Answer: B
Solve the equation 124 = m + 34.
(A) 158, (B) 90, (C) 88, (D) 4,216
Answer: B
Zelma buys p pounds of bananas for 40 cents per pound. She pays the clerk with a twenty-dollar bill. The clerk subtracts the total cost of the bananas from the twenty-dollar bill to determine the amount of change to give Zelma. Which expression represents the amount of change Zelma should receive?
(A) p - 20, (B) 20 - 40p, (C) 20 - 0.40p, (D) 0.40p - 20
Answer: C
Please answer the following question with just the correct option (A, B, C, or D) without any explanation or additional text.
Solve for the sum of all possible values of x when 3^{x^2+4x+4}=9^{x+2}.
(A) '1', (B) '2', (C) '-2', (D) '0'
Answer:","","","","","","","","","","","","","","","","","","","","","",""
"survey-html-form","45","3170430","0.0-4.0-1.13","eeabuqfya43up23","65957cc2d41780a47a18bd91","67b62c430b9240ccd8986e70","67b634d847689537fe7571c6","3","386005.1000000015","","","{""mcAnswer"":""C""}","","","Solve for the sum of all possible values of x when 3^{x^2+4x+4}=9^{x+2}.","[""1"",""2"",""-2"",""0""]","C","C","modiste","","C","184","algLinUCB_0.9","diff-topics","high_school_mathematics","The following are multiple choice questions about high_school_mathematics.
Colton and his dad bought a gallon of paint that cost $13. They also bought 2 brushes that cost $9 each. What was the total cost, not including tax, of the brushes and the paint they bought?
(A) $22, (B) $24, (C) $31, (D) $35
Answer: C
Solve for y. y – 2 + 3y = 10
(A) 2, (B) 3, (C) 4, (D) 5
Answer: B
Solve 3 over 2 * w = 66.
(A) 33, (B) 44, (C) 88, (D) 99
Answer: B
Write 5.875 as a mixed number or fraction in simplest form.
(A) 5 and 8 over 9, (B) 5 and 7 over 8, (C) 7 over 8, (D) 5 and 87 over 105
Answer: B
Solve the equation 124 = m + 34.
(A) 158, (B) 90, (C) 88, (D) 4,216
Answer: B
Zelma buys p pounds of bananas for 40 cents per pound. She pays the clerk with a twenty-dollar bill. The clerk subtracts the total cost of the bananas from the twenty-dollar bill to determine the amount of change to give Zelma. Which expression represents the amount of change Zelma should receive?
(A) p - 20, (B) 20 - 40p, (C) 20 - 0.40p, (D) 0.40p - 20
Answer: C
Please answer the following question with just the correct option (A, B, C, or D) without any explanation or additional text.
Solve for the sum of all possible values of x when 3^{x^2+4x+4}=9^{x+2}.
(A) '1', (B) '2', (C) '-2', (D) '0'
Answer:","","","","","","","","","","","","","","","","","","","","","",""
"","","","","","","","","","","","","","","","","","","","","","","","","","","","","","C","","","","","","","","","","","","","","","","","","",""
"","","","","","","","","","","","","","","","","","","","","","","","","","","","false","0","","false","174","-1","C","true","true","defer","[]","false","0","{""elementary_mathematics"":[""40/50"",""31/50"",""10/11""],""high_school_mathematics"":[""27/51"",""22/50"",""5/8""],""college_mathematics"":[""22/50"",""27/53"",""2/6""]}","{""college_mathematics"":false,""elementary_mathematics"":false,""high_school_mathematics"":false}","You should attempt this problem by yourself","null","null","null","null","true",""
"image-keyboard-response","46","3171940","0.0-4.0-2.13","eeabuqfya43up23","65957cc2d41780a47a18bd91","67b62c430b9240ccd8986e70","67b634d847689537fe7571c6","3","null","","","null","","","Solve for the sum of all possible values of x when 3^{x^2+4x+4}=9^{x+2}.","[""1"",""2"",""-2"",""0""]","C","C","modiste","","C","184","algLinUCB_0.9","diff-topics","high_school_mathematics","The following are multiple choice questions about high_school_mathematics.
Colton and his dad bought a gallon of paint that cost $13. They also bought 2 brushes that cost $9 each. What was the total cost, not including tax, of the brushes and the paint they bought?
(A) $22, (B) $24, (C) $31, (D) $35
Answer: C
Solve for y. y – 2 + 3y = 10
(A) 2, (B) 3, (C) 4, (D) 5
Answer: B
Solve 3 over 2 * w = 66.
(A) 33, (B) 44, (C) 88, (D) 99
Answer: B
Write 5.875 as a mixed number or fraction in simplest form.
(A) 5 and 8 over 9, (B) 5 and 7 over 8, (C) 7 over 8, (D) 5 and 87 over 105
Answer: B
Solve the equation 124 = m + 34.
(A) 158, (B) 90, (C) 88, (D) 4,216
Answer: B
Zelma buys p pounds of bananas for 40 cents per pound. She pays the clerk with a twenty-dollar bill. The clerk subtracts the total cost of the bananas from the twenty-dollar bill to determine the amount of change to give Zelma. Which expression represents the amount of change Zelma should receive?
(A) p - 20, (B) 20 - 40p, (C) 20 - 0.40p, (D) 0.40p - 20
Answer: C
Please answer the following question with just the correct option (A, B, C, or D) without any explanation or additional text.
Solve for the sum of all possible values of x when 3^{x^2+4x+4}=9^{x+2}.
(A) '1', (B) '2', (C) '-2', (D) '0'
Answer:","","","","","","","","","","","","","","","","","","","","","","feedback_imgs/Correct.png"
"call-function","47","3171941","0.0-4.0-0.14","eeabuqfya43up23","65957cc2d41780a47a18bd91","67b62c430b9240ccd8986e70","67b634d847689537fe7571c6","3","","","","","","defer","If 3^(x – 3) + 10 = 19, then x =","[""3"",""4"",""5"",""6""]","B","C","modiste","","C","191","algLinUCB_0.9","diff-topics","high_school_mathematics","The following are multiple choice questions about high_school_mathematics.
Colton and his dad bought a gallon of paint that cost $13. They also bought 2 brushes that cost $9 each. What was the total cost, not including tax, of the brushes and the paint they bought?
(A) $22, (B) $24, (C) $31, (D) $35
Answer: C
Solve for y. y – 2 + 3y = 10
(A) 2, (B) 3, (C) 4, (D) 5
Answer: B
Solve 3 over 2 * w = 66.
(A) 33, (B) 44, (C) 88, (D) 99
Answer: B
Write 5.875 as a mixed number or fraction in simplest form.
(A) 5 and 8 over 9, (B) 5 and 7 over 8, (C) 7 over 8, (D) 5 and 87 over 105
Answer: B
Solve the equation 124 = m + 34.
(A) 158, (B) 90, (C) 88, (D) 4,216
Answer: B
Zelma buys p pounds of bananas for 40 cents per pound. She pays the clerk with a twenty-dollar bill. The clerk subtracts the total cost of the bananas from the twenty-dollar bill to determine the amount of change to give Zelma. Which expression represents the amount of change Zelma should receive?
(A) p - 20, (B) 20 - 40p, (C) 20 - 0.40p, (D) 0.40p - 20
Answer: C
Please answer the following question with just the correct option (A, B, C, or D) without any explanation or additional text.
If 3^(x – 3) + 10 = 19, then x =
(A) '3', (B) '4', (C) '5', (D) '6'
Answer:","","","","","","","","","","","","","","","","","","","","","",""
"survey-html-form","48","3434109","0.0-4.0-1.14","eeabuqfya43up23","65957cc2d41780a47a18bd91","67b62c430b9240ccd8986e70","67b634d847689537fe7571c6","3","262161.200000003","","","{""mcAnswer"":""C""}","","","If 3^(x – 3) + 10 = 19, then x =","[""3"",""4"",""5"",""6""]","B","C","modiste","","C","191","algLinUCB_0.9","diff-topics","high_school_mathematics","The following are multiple choice questions about high_school_mathematics.
Colton and his dad bought a gallon of paint that cost $13. They also bought 2 brushes that cost $9 each. What was the total cost, not including tax, of the brushes and the paint they bought?
(A) $22, (B) $24, (C) $31, (D) $35
Answer: C
Solve for y. y – 2 + 3y = 10
(A) 2, (B) 3, (C) 4, (D) 5
Answer: B
Solve 3 over 2 * w = 66.
(A) 33, (B) 44, (C) 88, (D) 99
Answer: B
Write 5.875 as a mixed number or fraction in simplest form.
(A) 5 and 8 over 9, (B) 5 and 7 over 8, (C) 7 over 8, (D) 5 and 87 over 105
Answer: B
Solve the equation 124 = m + 34.
(A) 158, (B) 90, (C) 88, (D) 4,216
Answer: B
Zelma buys p pounds of bananas for 40 cents per pound. She pays the clerk with a twenty-dollar bill. The clerk subtracts the total cost of the bananas from the twenty-dollar bill to determine the amount of change to give Zelma. Which expression represents the amount of change Zelma should receive?
(A) p - 20, (B) 20 - 40p, (C) 20 - 0.40p, (D) 0.40p - 20
Answer: C
Please answer the following question with just the correct option (A, B, C, or D) without any explanation or additional text.
If 3^(x – 3) + 10 = 19, then x =
(A) '3', (B) '4', (C) '5', (D) '6'
Answer:","","","","","","","","","","","","","","","","","","","","","",""
"","","","","","","","","","","","","","","","","","","","","","","","","","","","","","C","","","","","","","","","","","","","","","","","","",""
"","","","","","","","","","","","","","","","","","","","","","","","","","","","false","0","","false","184","-1","B","true","false","defer","[]","false","0","{""elementary_mathematics"":[""40/50"",""31/50"",""10/11""],""high_school_mathematics"":[""27/51"",""22/50"",""6/9""],""college_mathematics"":[""22/50"",""27/53"",""2/6""]}","{""college_mathematics"":false,""elementary_mathematics"":false,""high_school_mathematics"":false}","You should attempt this problem by yourself","null","null","null","null","true",""
"image-keyboard-response","49","3435611","0.0-4.0-2.14","eeabuqfya43up23","65957cc2d41780a47a18bd91","67b62c430b9240ccd8986e70","67b634d847689537fe7571c6","3","null","","","null","","","If 3^(x – 3) + 10 = 19, then x =","[""3"",""4"",""5"",""6""]","B","C","modiste","","C","191","algLinUCB_0.9","diff-topics","high_school_mathematics","The following are multiple choice questions about high_school_mathematics.
Colton and his dad bought a gallon of paint that cost $13. They also bought 2 brushes that cost $9 each. What was the total cost, not including tax, of the brushes and the paint they bought?
(A) $22, (B) $24, (C) $31, (D) $35
Answer: C
Solve for y. y – 2 + 3y = 10
(A) 2, (B) 3, (C) 4, (D) 5
Answer: B
Solve 3 over 2 * w = 66.
(A) 33, (B) 44, (C) 88, (D) 99
Answer: B
Write 5.875 as a mixed number or fraction in simplest form.
(A) 5 and 8 over 9, (B) 5 and 7 over 8, (C) 7 over 8, (D) 5 and 87 over 105
Answer: B
Solve the equation 124 = m + 34.
(A) 158, (B) 90, (C) 88, (D) 4,216
Answer: B
Zelma buys p pounds of bananas for 40 cents per pound. She pays the clerk with a twenty-dollar bill. The clerk subtracts the total cost of the bananas from the twenty-dollar bill to determine the amount of change to give Zelma. Which expression represents the amount of change Zelma should receive?
(A) p - 20, (B) 20 - 40p, (C) 20 - 0.40p, (D) 0.40p - 20
Answer: C
Please answer the following question with just the correct option (A, B, C, or D) without any explanation or additional text.
If 3^(x – 3) + 10 = 19, then x =
(A) '3', (B) '4', (C) '5', (D) '6'
Answer:","","","","","","","","","","","","","","","","","","","","","","feedback_imgs/Correct.png"
"call-function","50","3435613","0.0-4.0-0.15","eeabuqfya43up23","65957cc2d41780a47a18bd91","67b62c430b9240ccd8986e70","67b634d847689537fe7571c6","3","","","","","","defer","Statement 1 | Suppose f : [a, b] is a function and suppose f has a local maximum. f'(x) must exist and equal 0? Statement 2 | There exist non-constant continuous maps from R to Q.","[""True, True"",""True, False"",""False, True"",""False, False""]","B","D","modiste","","D","236","algLinUCB_0.9","diff-topics","college_mathematics","The following are multiple choice questions about high_school_mathematics.
Colton and his dad bought a gallon of paint that cost $13. They also bought 2 brushes that cost $9 each. What was the total cost, not including tax, of the brushes and the paint they bought?
(A) $22, (B) $24, (C) $31, (D) $35
Answer: C
Solve for y. y – 2 + 3y = 10
(A) 2, (B) 3, (C) 4, (D) 5
Answer: B
Solve 3 over 2 * w = 66.
(A) 33, (B) 44, (C) 88, (D) 99
Answer: B
Write 5.875 as a mixed number or fraction in simplest form.
(A) 5 and 8 over 9, (B) 5 and 7 over 8, (C) 7 over 8, (D) 5 and 87 over 105
Answer: B
Solve the equation 124 = m + 34.
(A) 158, (B) 90, (C) 88, (D) 4,216
Answer: B
Zelma buys p pounds of bananas for 40 cents per pound. She pays the clerk with a twenty-dollar bill. The clerk subtracts the total cost of the bananas from the twenty-dollar bill to determine the amount of change to give Zelma. Which expression represents the amount of change Zelma should receive?
(A) p - 20, (B) 20 - 40p, (C) 20 - 0.40p, (D) 0.40p - 20
Answer: C
Please answer the following question with just the correct option (A, B, C, or D) without any explanation or additional text.
Statement 1 | Suppose f : [a, b] is a function and suppose f has a local maximum. f'(x) must exist and equal 0? Statement 2 | There exist non-constant continuous maps from R to Q.
(A) 'True, True', (B) 'True, False', (C) 'False, True', (D) 'False, False'
Answer:","true","2","","","","","","","","","","","","","","","","","","","",""
"survey-html-form","51","3459237","0.0-4.0-1.15","eeabuqfya43up23","65957cc2d41780a47a18bd91","67b62c430b9240ccd8986e70","67b634d847689537fe7571c6","3","23617.10000000149","","","{""mcAnswer"":""B""}","","","Statement 1 | Suppose f : [a, b] is a function and suppose f has a local maximum. f'(x) must exist and equal 0? Statement 2 | There exist non-constant continuous maps from R to Q.","[""True, True"",""True, False"",""False, True"",""False, False""]","B","D","modiste","","D","236","algLinUCB_0.9","diff-topics","college_mathematics","The following are multiple choice questions about high_school_mathematics.
Colton and his dad bought a gallon of paint that cost $13. They also bought 2 brushes that cost $9 each. What was the total cost, not including tax, of the brushes and the paint they bought?
(A) $22, (B) $24, (C) $31, (D) $35
Answer: C
Solve for y. y – 2 + 3y = 10
(A) 2, (B) 3, (C) 4, (D) 5
Answer: B
Solve 3 over 2 * w = 66.
(A) 33, (B) 44, (C) 88, (D) 99
Answer: B
Write 5.875 as a mixed number or fraction in simplest form.
(A) 5 and 8 over 9, (B) 5 and 7 over 8, (C) 7 over 8, (D) 5 and 87 over 105
Answer: B
Solve the equation 124 = m + 34.
(A) 158, (B) 90, (C) 88, (D) 4,216
Answer: B
Zelma buys p pounds of bananas for 40 cents per pound. She pays the clerk with a twenty-dollar bill. The clerk subtracts the total cost of the bananas from the twenty-dollar bill to determine the amount of change to give Zelma. Which expression represents the amount of change Zelma should receive?
(A) p - 20, (B) 20 - 40p, (C) 20 - 0.40p, (D) 0.40p - 20
Answer: C
Please answer the following question with just the correct option (A, B, C, or D) without any explanation or additional text.
Statement 1 | Suppose f : [a, b] is a function and suppose f has a local maximum. f'(x) must exist and equal 0? Statement 2 | There exist non-constant continuous maps from R to Q.
(A) 'True, True', (B) 'True, False', (C) 'False, True', (D) 'False, False'
Answer:","","","","","","","","","","","","","","","","","","","","","",""
"","","","","","","","","","","","","","","","","","","","","","","","","","","","","","B","","","","","","","","","","","","","","","","","","",""
