"trial_type","trial_index","time_elapsed","internal_node_id","subject","prolific_id","study_id","session_id","condition","rt","url","view_history","response","question_order","value","question","options","llm_answer","population_answer","task","subj_id","label","example_id","variant","main_variant","topic","prompt","0","btn_clicked","score","timeToClick","modelPred","humanCorrect","modelCorrect","interfaceType","modelPredDist","human_support_used","human_support_clicks","llm_support_used","llm_support_clicks","recommendation_lists","incorrect_answers_by_category","recommendation","LLM_outsourcing_overridden","human_outsourcing_overridden","ai_orch_agreement","human_orch_agreement","self_orch_agreement","stimulus"
"pavlovia","0","2132","0.0-0.0","8ns15d0qgmh6w8n","5dcca2db88381e92c96b9ac5","67b62c430b9240ccd8986e70","67b6397fd5432c30bf9041f7","0","","","","","","","","","","","","","","","","","","","","","","","","","","","","","","","","","","","","","","","",""
"external-html","1","25482","0.0-1.0","8ns15d0qgmh6w8n","5dcca2db88381e92c96b9ac5","67b62c430b9240ccd8986e70","67b6397fd5432c30bf9041f7","0","23045.299999952316","consent.html","","","","","","","","","","","","","","","","","","","","","","","","","","","","","","","","","","","","","",""
"instructions","2","69099","0.0-2.0-0.0","8ns15d0qgmh6w8n","5dcca2db88381e92c96b9ac5","67b62c430b9240ccd8986e70","67b6397fd5432c30bf9041f7","0","43614.800000071526","","[{""page_index"":0,""viewing_time"":7444},{""page_index"":1,""viewing_time"":7183.200000047684},{""page_index"":2,""viewing_time"":5263.799999952316},{""page_index"":3,""viewing_time"":6758.200000047684},{""page_index"":4,""viewing_time"":4181.100000023842},{""page_index"":5,""viewing_time"":7681},{""page_index"":6,""viewing_time"":1404.6000000238419},{""page_index"":7,""viewing_time"":3698.399999976158}]","","","","","","","","","","","","","","","","","","","","","","","","","","","","","","","","","","","","",""
"survey-multi-choice","3","77681","0.0-2.0-1.0","8ns15d0qgmh6w8n","5dcca2db88381e92c96b9ac5","67b62c430b9240ccd8986e70","67b6397fd5432c30bf9041f7","0","8579","","","{""Q0"":""The answer to a mutliple choice question."",""Q1"":""Clicking on a radio button.""}","[0,1]","","","","","","","","","","","","","","","","","","","","","","","","","","","","","","","","","","",""
"instructions","4","91986","0.0-3.0","8ns15d0qgmh6w8n","5dcca2db88381e92c96b9ac5","67b62c430b9240ccd8986e70","67b6397fd5432c30bf9041f7","0","14302.600000023842","","[{""page_index"":0,""viewing_time"":14302.300000071526}]","","","","","","","","","","","","","","","","","","","","","","","","","","","","","","","","","","","","",""
"call-function","5","91987","0.0-4.0-0.0","8ns15d0qgmh6w8n","5dcca2db88381e92c96b9ac5","67b62c430b9240ccd8986e70","67b6397fd5432c30bf9041f7","0","","","","","","defer","Find the quotient of 2.16 ÷ 0.06.","[""3.6"",""36"",""0.01272"",""12.72""]","B","B","modiste","","B","27","algLinUCB_0.9","diff-topics","elementary_mathematics","The following are multiple choice questions about high_school_mathematics.
Colton and his dad bought a gallon of paint that cost $13. They also bought 2 brushes that cost $9 each. What was the total cost, not including tax, of the brushes and the paint they bought?
(A) $22, (B) $24, (C) $31, (D) $35
Answer: C
Solve for y. y – 2 + 3y = 10
(A) 2, (B) 3, (C) 4, (D) 5
Answer: B
Solve 3 over 2 * w = 66.
(A) 33, (B) 44, (C) 88, (D) 99
Answer: B
Write 5.875 as a mixed number or fraction in simplest form.
(A) 5 and 8 over 9, (B) 5 and 7 over 8, (C) 7 over 8, (D) 5 and 87 over 105
Answer: B
Solve the equation 124 = m + 34.
(A) 158, (B) 90, (C) 88, (D) 4,216
Answer: B
Zelma buys p pounds of bananas for 40 cents per pound. She pays the clerk with a twenty-dollar bill. The clerk subtracts the total cost of the bananas from the twenty-dollar bill to determine the amount of change to give Zelma. Which expression represents the amount of change Zelma should receive?
(A) p - 20, (B) 20 - 40p, (C) 20 - 0.40p, (D) 0.40p - 20
Answer: C
Please answer the following question with just the correct option (A, B, C, or D) without any explanation or additional text.
Find the quotient of 2.16 ÷ 0.06.
(A) '3.6', (B) '36', (C) '0.01272', (D) '12.72'
Answer:","","","","","","","","","","","","","","","","","","","","","",""
"survey-html-form","6","127617","0.0-4.0-1.0","8ns15d0qgmh6w8n","5dcca2db88381e92c96b9ac5","67b62c430b9240ccd8986e70","67b6397fd5432c30bf9041f7","0","35624.59999990463","","","{""mcAnswer"":""B""}","","","Find the quotient of 2.16 ÷ 0.06.","[""3.6"",""36"",""0.01272"",""12.72""]","B","B","modiste","","B","27","algLinUCB_0.9","diff-topics","elementary_mathematics","The following are multiple choice questions about high_school_mathematics.
Colton and his dad bought a gallon of paint that cost $13. They also bought 2 brushes that cost $9 each. What was the total cost, not including tax, of the brushes and the paint they bought?
(A) $22, (B) $24, (C) $31, (D) $35
Answer: C
Solve for y. y – 2 + 3y = 10
(A) 2, (B) 3, (C) 4, (D) 5
Answer: B
Solve 3 over 2 * w = 66.
(A) 33, (B) 44, (C) 88, (D) 99
Answer: B
Write 5.875 as a mixed number or fraction in simplest form.
(A) 5 and 8 over 9, (B) 5 and 7 over 8, (C) 7 over 8, (D) 5 and 87 over 105
Answer: B
Solve the equation 124 = m + 34.
(A) 158, (B) 90, (C) 88, (D) 4,216
Answer: B
Zelma buys p pounds of bananas for 40 cents per pound. She pays the clerk with a twenty-dollar bill. The clerk subtracts the total cost of the bananas from the twenty-dollar bill to determine the amount of change to give Zelma. Which expression represents the amount of change Zelma should receive?
(A) p - 20, (B) 20 - 40p, (C) 20 - 0.40p, (D) 0.40p - 20
Answer: C
Please answer the following question with just the correct option (A, B, C, or D) without any explanation or additional text.
Find the quotient of 2.16 ÷ 0.06.
(A) '3.6', (B) '36', (C) '0.01272', (D) '12.72'
Answer:","","","","","","","","","","","","","","","","","","","","","",""
"","","","","","","","","","","","","","","","","","","","","","","","","","","","B","","","","","","","","","","","","","","","","","","","","",""
"","","","","","","","","","","","","","","","","","","","","","","","","","","","","false","110","-1","B","true","true","defer","[]","false","0","false","0","{""elementary_mathematics"":[""40/50"",""31/50"",""5/6""],""high_school_mathematics"":[""27/50"",""22/50"",""3 / 5""],""college_mathematics"":[""22/50"",""26/50"",""2 / 5""]}","{""elementary_mathematics"":false}","You should attempt this problem by yourself","null","null","null","null","true",""
"image-keyboard-response","7","129126","0.0-4.0-2.0","8ns15d0qgmh6w8n","5dcca2db88381e92c96b9ac5","67b62c430b9240ccd8986e70","67b6397fd5432c30bf9041f7","0","null","","","null","","","Find the quotient of 2.16 ÷ 0.06.","[""3.6"",""36"",""0.01272"",""12.72""]","B","B","modiste","","B","27","algLinUCB_0.9","diff-topics","elementary_mathematics","The following are multiple choice questions about high_school_mathematics.
Colton and his dad bought a gallon of paint that cost $13. They also bought 2 brushes that cost $9 each. What was the total cost, not including tax, of the brushes and the paint they bought?
(A) $22, (B) $24, (C) $31, (D) $35
Answer: C
Solve for y. y – 2 + 3y = 10
(A) 2, (B) 3, (C) 4, (D) 5
Answer: B
Solve 3 over 2 * w = 66.
(A) 33, (B) 44, (C) 88, (D) 99
Answer: B
Write 5.875 as a mixed number or fraction in simplest form.
(A) 5 and 8 over 9, (B) 5 and 7 over 8, (C) 7 over 8, (D) 5 and 87 over 105
Answer: B
Solve the equation 124 = m + 34.
(A) 158, (B) 90, (C) 88, (D) 4,216
Answer: B
Zelma buys p pounds of bananas for 40 cents per pound. She pays the clerk with a twenty-dollar bill. The clerk subtracts the total cost of the bananas from the twenty-dollar bill to determine the amount of change to give Zelma. Which expression represents the amount of change Zelma should receive?
(A) p - 20, (B) 20 - 40p, (C) 20 - 0.40p, (D) 0.40p - 20
Answer: C
Please answer the following question with just the correct option (A, B, C, or D) without any explanation or additional text.
Find the quotient of 2.16 ÷ 0.06.
(A) '3.6', (B) '36', (C) '0.01272', (D) '12.72'
Answer:","","","","","","","","","","","","","","","","","","","","","","feedback_imgs/Correct.png"
"call-function","8","129126","0.0-4.0-0.1","8ns15d0qgmh6w8n","5dcca2db88381e92c96b9ac5","67b62c430b9240ccd8986e70","67b6397fd5432c30bf9041f7","0","","","","","","defer","Jack picks 60 apples from an apple tree. He uses 12 of them to make applesauce. He places the remaining apples equally into 6 gift baskets. Which equation can be used to determine the numberof apples, a, that Jack places into each gift basket?","[""(60/6)—12=a"",""(60—12)/6=a"",""(60-6)-12=a"",""(60+12)/6=a""]","B","B","modiste","","B","37","algLinUCB_0.9","diff-topics","elementary_mathematics","The following are multiple choice questions about high_school_mathematics.
Colton and his dad bought a gallon of paint that cost $13. They also bought 2 brushes that cost $9 each. What was the total cost, not including tax, of the brushes and the paint they bought?
(A) $22, (B) $24, (C) $31, (D) $35
Answer: C
Solve for y. y – 2 + 3y = 10
(A) 2, (B) 3, (C) 4, (D) 5
Answer: B
Solve 3 over 2 * w = 66.
(A) 33, (B) 44, (C) 88, (D) 99
Answer: B
Write 5.875 as a mixed number or fraction in simplest form.
(A) 5 and 8 over 9, (B) 5 and 7 over 8, (C) 7 over 8, (D) 5 and 87 over 105
Answer: B
Solve the equation 124 = m + 34.
(A) 158, (B) 90, (C) 88, (D) 4,216
Answer: B
Zelma buys p pounds of bananas for 40 cents per pound. She pays the clerk with a twenty-dollar bill. The clerk subtracts the total cost of the bananas from the twenty-dollar bill to determine the amount of change to give Zelma. Which expression represents the amount of change Zelma should receive?
(A) p - 20, (B) 20 - 40p, (C) 20 - 0.40p, (D) 0.40p - 20
Answer: C
Please answer the following question with just the correct option (A, B, C, or D) without any explanation or additional text.
Jack picks 60 apples from an apple tree. He uses 12 of them to make applesauce. He places the remaining apples equally into 6 gift baskets. Which equation can be used to determine the numberof apples, a, that Jack places into each gift basket?
(A) '(60/6)—12=a', (B) '(60—12)/6=a', (C) '(60-6)-12=a', (D) '(60+12)/6=a'
Answer:","","","","","","","","","","","","","","","","","","","","","",""
"survey-html-form","9","154311","0.0-4.0-1.1","8ns15d0qgmh6w8n","5dcca2db88381e92c96b9ac5","67b62c430b9240ccd8986e70","67b6397fd5432c30bf9041f7","0","25180.300000071526","","","{""mcAnswer"":""B""}","","","Jack picks 60 apples from an apple tree. He uses 12 of them to make applesauce. He places the remaining apples equally into 6 gift baskets. Which equation can be used to determine the numberof apples, a, that Jack places into each gift basket?","[""(60/6)—12=a"",""(60—12)/6=a"",""(60-6)-12=a"",""(60+12)/6=a""]","B","B","modiste","","B","37","algLinUCB_0.9","diff-topics","elementary_mathematics","The following are multiple choice questions about high_school_mathematics.
Colton and his dad bought a gallon of paint that cost $13. They also bought 2 brushes that cost $9 each. What was the total cost, not including tax, of the brushes and the paint they bought?
(A) $22, (B) $24, (C) $31, (D) $35
Answer: C
Solve for y. y – 2 + 3y = 10
(A) 2, (B) 3, (C) 4, (D) 5
Answer: B
Solve 3 over 2 * w = 66.
(A) 33, (B) 44, (C) 88, (D) 99
Answer: B
Write 5.875 as a mixed number or fraction in simplest form.
(A) 5 and 8 over 9, (B) 5 and 7 over 8, (C) 7 over 8, (D) 5 and 87 over 105
Answer: B
Solve the equation 124 = m + 34.
(A) 158, (B) 90, (C) 88, (D) 4,216
Answer: B
Zelma buys p pounds of bananas for 40 cents per pound. She pays the clerk with a twenty-dollar bill. The clerk subtracts the total cost of the bananas from the twenty-dollar bill to determine the amount of change to give Zelma. Which expression represents the amount of change Zelma should receive?
(A) p - 20, (B) 20 - 40p, (C) 20 - 0.40p, (D) 0.40p - 20
Answer: C
Please answer the following question with just the correct option (A, B, C, or D) without any explanation or additional text.
Jack picks 60 apples from an apple tree. He uses 12 of them to make applesauce. He places the remaining apples equally into 6 gift baskets. Which equation can be used to determine the numberof apples, a, that Jack places into each gift basket?
(A) '(60/6)—12=a', (B) '(60—12)/6=a', (C) '(60-6)-12=a', (D) '(60+12)/6=a'
Answer:","","","","","","","","","","","","","","","","","","","","","",""
"","","","","","","","","","","","","","","","","","","","","","","","","","","","B","","","","","","","","","","","","","","","","","","","","",""
"","","","","","","","","","","","","","","","","","","","","","","","","","","","","false","120","-1","B","true","true","defer","[]","false","0","false","0","{""elementary_mathematics"":[""40/50"",""31/50"",""6/7""],""high_school_mathematics"":[""27/50"",""22/50"",""3 / 5""],""college_mathematics"":[""22/50"",""26/50"",""2 / 5""]}","{""elementary_mathematics"":false}","You should attempt this problem by yourself","null","null","null","null","true",""
"image-keyboard-response","10","155816","0.0-4.0-2.1","8ns15d0qgmh6w8n","5dcca2db88381e92c96b9ac5","67b62c430b9240ccd8986e70","67b6397fd5432c30bf9041f7","0","null","","","null","","","Jack picks 60 apples from an apple tree. He uses 12 of them to make applesauce. He places the remaining apples equally into 6 gift baskets. Which equation can be used to determine the numberof apples, a, that Jack places into each gift basket?","[""(60/6)—12=a"",""(60—12)/6=a"",""(60-6)-12=a"",""(60+12)/6=a""]","B","B","modiste","","B","37","algLinUCB_0.9","diff-topics","elementary_mathematics","The following are multiple choice questions about high_school_mathematics.
Colton and his dad bought a gallon of paint that cost $13. They also bought 2 brushes that cost $9 each. What was the total cost, not including tax, of the brushes and the paint they bought?
(A) $22, (B) $24, (C) $31, (D) $35
Answer: C
Solve for y. y – 2 + 3y = 10
(A) 2, (B) 3, (C) 4, (D) 5
Answer: B
Solve 3 over 2 * w = 66.
(A) 33, (B) 44, (C) 88, (D) 99
Answer: B
Write 5.875 as a mixed number or fraction in simplest form.
(A) 5 and 8 over 9, (B) 5 and 7 over 8, (C) 7 over 8, (D) 5 and 87 over 105
Answer: B
Solve the equation 124 = m + 34.
(A) 158, (B) 90, (C) 88, (D) 4,216
Answer: B
Zelma buys p pounds of bananas for 40 cents per pound. She pays the clerk with a twenty-dollar bill. The clerk subtracts the total cost of the bananas from the twenty-dollar bill to determine the amount of change to give Zelma. Which expression represents the amount of change Zelma should receive?
(A) p - 20, (B) 20 - 40p, (C) 20 - 0.40p, (D) 0.40p - 20
Answer: C
Please answer the following question with just the correct option (A, B, C, or D) without any explanation or additional text.
Jack picks 60 apples from an apple tree. He uses 12 of them to make applesauce. He places the remaining apples equally into 6 gift baskets. Which equation can be used to determine the numberof apples, a, that Jack places into each gift basket?
(A) '(60/6)—12=a', (B) '(60—12)/6=a', (C) '(60-6)-12=a', (D) '(60+12)/6=a'
Answer:","","","","","","","","","","","","","","","","","","","","","","feedback_imgs/Correct.png"
"call-function","11","155816","0.0-4.0-0.2","8ns15d0qgmh6w8n","5dcca2db88381e92c96b9ac5","67b62c430b9240ccd8986e70","67b6397fd5432c30bf9041f7","0","","","","","","defer","Maddie will ride her bike a total of 56 miles over 7 days. She will ride the same number of miles each day. What is the total number of miles Maddie will ride each day?","[""8"",""9"",""49"",""63""]","A","A","modiste","","A","32","algLinUCB_0.9","diff-topics","elementary_mathematics","The following are multiple choice questions about high_school_mathematics.
Colton and his dad bought a gallon of paint that cost $13. They also bought 2 brushes that cost $9 each. What was the total cost, not including tax, of the brushes and the paint they bought?
(A) $22, (B) $24, (C) $31, (D) $35
Answer: C
Solve for y. y – 2 + 3y = 10
(A) 2, (B) 3, (C) 4, (D) 5
Answer: B
Solve 3 over 2 * w = 66.
(A) 33, (B) 44, (C) 88, (D) 99
Answer: B
Write 5.875 as a mixed number or fraction in simplest form.
(A) 5 and 8 over 9, (B) 5 and 7 over 8, (C) 7 over 8, (D) 5 and 87 over 105
Answer: B
Solve the equation 124 = m + 34.
(A) 158, (B) 90, (C) 88, (D) 4,216
Answer: B
Zelma buys p pounds of bananas for 40 cents per pound. She pays the clerk with a twenty-dollar bill. The clerk subtracts the total cost of the bananas from the twenty-dollar bill to determine the amount of change to give Zelma. Which expression represents the amount of change Zelma should receive?
(A) p - 20, (B) 20 - 40p, (C) 20 - 0.40p, (D) 0.40p - 20
Answer: C
Please answer the following question with just the correct option (A, B, C, or D) without any explanation or additional text.
Maddie will ride her bike a total of 56 miles over 7 days. She will ride the same number of miles each day. What is the total number of miles Maddie will ride each day?
(A) '8', (B) '9', (C) '49', (D) '63'
Answer:","","","","","","","","","","","","","","","","","","","","","",""
"survey-html-form","12","172896","0.0-4.0-1.2","8ns15d0qgmh6w8n","5dcca2db88381e92c96b9ac5","67b62c430b9240ccd8986e70","67b6397fd5432c30bf9041f7","0","17077","","","{""mcAnswer"":""A""}","","","Maddie will ride her bike a total of 56 miles over 7 days. She will ride the same number of miles each day. What is the total number of miles Maddie will ride each day?","[""8"",""9"",""49"",""63""]","A","A","modiste","","A","32","algLinUCB_0.9","diff-topics","elementary_mathematics","The following are multiple choice questions about high_school_mathematics.
Colton and his dad bought a gallon of paint that cost $13. They also bought 2 brushes that cost $9 each. What was the total cost, not including tax, of the brushes and the paint they bought?
(A) $22, (B) $24, (C) $31, (D) $35
Answer: C
Solve for y. y – 2 + 3y = 10
(A) 2, (B) 3, (C) 4, (D) 5
Answer: B
Solve 3 over 2 * w = 66.
(A) 33, (B) 44, (C) 88, (D) 99
Answer: B
Write 5.875 as a mixed number or fraction in simplest form.
(A) 5 and 8 over 9, (B) 5 and 7 over 8, (C) 7 over 8, (D) 5 and 87 over 105
Answer: B
Solve the equation 124 = m + 34.
(A) 158, (B) 90, (C) 88, (D) 4,216
Answer: B
Zelma buys p pounds of bananas for 40 cents per pound. She pays the clerk with a twenty-dollar bill. The clerk subtracts the total cost of the bananas from the twenty-dollar bill to determine the amount of change to give Zelma. Which expression represents the amount of change Zelma should receive?
(A) p - 20, (B) 20 - 40p, (C) 20 - 0.40p, (D) 0.40p - 20
Answer: C
Please answer the following question with just the correct option (A, B, C, or D) without any explanation or additional text.
Maddie will ride her bike a total of 56 miles over 7 days. She will ride the same number of miles each day. What is the total number of miles Maddie will ride each day?
(A) '8', (B) '9', (C) '49', (D) '63'
Answer:","","","","","","","","","","","","","","","","","","","","","",""
"","","","","","","","","","","","","","","","","","","","","","","","","","","","A","","","","","","","","","","","","","","","","","","","","",""
"","","","","","","","","","","","","","","","","","","","","","","","","","","","","false","130","-1","A","true","true","defer","[]","false","0","false","0","{""elementary_mathematics"":[""40/50"",""31/50"",""7/8""],""high_school_mathematics"":[""27/50"",""22/50"",""3 / 5""],""college_mathematics"":[""22/50"",""26/50"",""2 / 5""]}","{""elementary_mathematics"":false}","You should attempt this problem by yourself","null","null","null","null","true",""
"image-keyboard-response","13","174415","0.0-4.0-2.2","8ns15d0qgmh6w8n","5dcca2db88381e92c96b9ac5","67b62c430b9240ccd8986e70","67b6397fd5432c30bf9041f7","0","null","","","null","","","Maddie will ride her bike a total of 56 miles over 7 days. She will ride the same number of miles each day. What is the total number of miles Maddie will ride each day?","[""8"",""9"",""49"",""63""]","A","A","modiste","","A","32","algLinUCB_0.9","diff-topics","elementary_mathematics","The following are multiple choice questions about high_school_mathematics.
Colton and his dad bought a gallon of paint that cost $13. They also bought 2 brushes that cost $9 each. What was the total cost, not including tax, of the brushes and the paint they bought?
(A) $22, (B) $24, (C) $31, (D) $35
Answer: C
Solve for y. y – 2 + 3y = 10
(A) 2, (B) 3, (C) 4, (D) 5
Answer: B
Solve 3 over 2 * w = 66.
(A) 33, (B) 44, (C) 88, (D) 99
Answer: B
Write 5.875 as a mixed number or fraction in simplest form.
(A) 5 and 8 over 9, (B) 5 and 7 over 8, (C) 7 over 8, (D) 5 and 87 over 105
Answer: B
Solve the equation 124 = m + 34.
(A) 158, (B) 90, (C) 88, (D) 4,216
Answer: B
Zelma buys p pounds of bananas for 40 cents per pound. She pays the clerk with a twenty-dollar bill. The clerk subtracts the total cost of the bananas from the twenty-dollar bill to determine the amount of change to give Zelma. Which expression represents the amount of change Zelma should receive?
(A) p - 20, (B) 20 - 40p, (C) 20 - 0.40p, (D) 0.40p - 20
Answer: C
Please answer the following question with just the correct option (A, B, C, or D) without any explanation or additional text.
Maddie will ride her bike a total of 56 miles over 7 days. She will ride the same number of miles each day. What is the total number of miles Maddie will ride each day?
(A) '8', (B) '9', (C) '49', (D) '63'
Answer:","","","","","","","","","","","","","","","","","","","","","","feedback_imgs/Correct.png"
"call-function","14","174416","0.0-4.0-0.3","8ns15d0qgmh6w8n","5dcca2db88381e92c96b9ac5","67b62c430b9240ccd8986e70","67b6397fd5432c30bf9041f7","0","","","","","","defer","Trish's resting heart rate is 50 beats per minute. For every minute she exercises, her heart rate increases 5 beats per minute. How long will it take her to reach a heart rate of 120 beats per minute?","[""5 minutes"",""14 minutes"",""34 minutes"",""70 minutes""]","B","B","modiste","","B","35","algLinUCB_0.9","diff-topics","elementary_mathematics","The following are multiple choice questions about high_school_mathematics.
Colton and his dad bought a gallon of paint that cost $13. They also bought 2 brushes that cost $9 each. What was the total cost, not including tax, of the brushes and the paint they bought?
(A) $22, (B) $24, (C) $31, (D) $35
Answer: C
Solve for y. y – 2 + 3y = 10
(A) 2, (B) 3, (C) 4, (D) 5
Answer: B
Solve 3 over 2 * w = 66.
(A) 33, (B) 44, (C) 88, (D) 99
Answer: B
Write 5.875 as a mixed number or fraction in simplest form.
(A) 5 and 8 over 9, (B) 5 and 7 over 8, (C) 7 over 8, (D) 5 and 87 over 105
Answer: B
Solve the equation 124 = m + 34.
(A) 158, (B) 90, (C) 88, (D) 4,216
Answer: B
Zelma buys p pounds of bananas for 40 cents per pound. She pays the clerk with a twenty-dollar bill. The clerk subtracts the total cost of the bananas from the twenty-dollar bill to determine the amount of change to give Zelma. Which expression represents the amount of change Zelma should receive?
(A) p - 20, (B) 20 - 40p, (C) 20 - 0.40p, (D) 0.40p - 20
Answer: C
Please answer the following question with just the correct option (A, B, C, or D) without any explanation or additional text.
Trish’s resting heart rate is 50 beats per minute. For every minute she exercises, her heart rate increases 5 beats per minute. How long will it take her to reach a heart rate of 120 beats per minute?
(A) '5 minutes', (B) '14 minutes', (C) '34 minutes', (D) '70 minutes'
Answer:","","","","","","","","","","","","","","","","","","","","","",""
"survey-html-form","15","234094","0.0-4.0-1.3","8ns15d0qgmh6w8n","5dcca2db88381e92c96b9ac5","67b62c430b9240ccd8986e70","67b6397fd5432c30bf9041f7","0","59673.799999952316","","","{""mcAnswer"":""B""}","","","Trish's resting heart rate is 50 beats per minute. For every minute she exercises, her heart rate increases 5 beats per minute. How long will it take her to reach a heart rate of 120 beats per minute?","[""5 minutes"",""14 minutes"",""34 minutes"",""70 minutes""]","B","B","modiste","","B","35","algLinUCB_0.9","diff-topics","elementary_mathematics","The following are multiple choice questions about high_school_mathematics.
Colton and his dad bought a gallon of paint that cost $13. They also bought 2 brushes that cost $9 each. What was the total cost, not including tax, of the brushes and the paint they bought?
(A) $22, (B) $24, (C) $31, (D) $35
Answer: C
Solve for y. y – 2 + 3y = 10
(A) 2, (B) 3, (C) 4, (D) 5
Answer: B
Solve 3 over 2 * w = 66.
(A) 33, (B) 44, (C) 88, (D) 99
Answer: B
Write 5.875 as a mixed number or fraction in simplest form.
(A) 5 and 8 over 9, (B) 5 and 7 over 8, (C) 7 over 8, (D) 5 and 87 over 105
Answer: B
Solve the equation 124 = m + 34.
(A) 158, (B) 90, (C) 88, (D) 4,216
Answer: B
Zelma buys p pounds of bananas for 40 cents per pound. She pays the clerk with a twenty-dollar bill. The clerk subtracts the total cost of the bananas from the twenty-dollar bill to determine the amount of change to give Zelma. Which expression represents the amount of change Zelma should receive?
(A) p - 20, (B) 20 - 40p, (C) 20 - 0.40p, (D) 0.40p - 20
Answer: C
Please answer the following question with just the correct option (A, B, C, or D) without any explanation or additional text.
Trish’s resting heart rate is 50 beats per minute. For every minute she exercises, her heart rate increases 5 beats per minute. How long will it take her to reach a heart rate of 120 beats per minute?
(A) '5 minutes', (B) '14 minutes', (C) '34 minutes', (D) '70 minutes'
Answer:","","","","","","","","","","","","","","","","","","","","","",""
"","","","","","","","","","","","","","","","","","","","","","","","","","","","B","","","","","","","","","","","","","","","","","","","","",""
"","","","","","","","","","","","","","","","","","","","","","","","","","","","","false","140","-1","B","true","true","defer","[]","false","0","false","0","{""elementary_mathematics"":[""40/50"",""31/50"",""8/9""],""high_school_mathematics"":[""27/50"",""22/50"",""3 / 5""],""college_mathematics"":[""22/50"",""26/50"",""2 / 5""]}","{""elementary_mathematics"":false}","You should attempt this problem by yourself","null","null","null","null","true",""
"image-keyboard-response","16","235598","0.0-4.0-2.3","8ns15d0qgmh6w8n","5dcca2db88381e92c96b9ac5","67b62c430b9240ccd8986e70","67b6397fd5432c30bf9041f7","0","null","","","null","","","Trish's resting heart rate is 50 beats per minute. For every minute she exercises, her heart rate increases 5 beats per minute. How long will it take her to reach a heart rate of 120 beats per minute?","[""5 minutes"",""14 minutes"",""34 minutes"",""70 minutes""]","B","B","modiste","","B","35","algLinUCB_0.9","diff-topics","elementary_mathematics","The following are multiple choice questions about high_school_mathematics.
Colton and his dad bought a gallon of paint that cost $13. They also bought 2 brushes that cost $9 each. What was the total cost, not including tax, of the brushes and the paint they bought?
(A) $22, (B) $24, (C) $31, (D) $35
Answer: C
Solve for y. y – 2 + 3y = 10
(A) 2, (B) 3, (C) 4, (D) 5
Answer: B
Solve 3 over 2 * w = 66.
(A) 33, (B) 44, (C) 88, (D) 99
Answer: B
Write 5.875 as a mixed number or fraction in simplest form.
(A) 5 and 8 over 9, (B) 5 and 7 over 8, (C) 7 over 8, (D) 5 and 87 over 105
Answer: B
Solve the equation 124 = m + 34.
(A) 158, (B) 90, (C) 88, (D) 4,216
Answer: B
Zelma buys p pounds of bananas for 40 cents per pound. She pays the clerk with a twenty-dollar bill. The clerk subtracts the total cost of the bananas from the twenty-dollar bill to determine the amount of change to give Zelma. Which expression represents the amount of change Zelma should receive?
(A) p - 20, (B) 20 - 40p, (C) 20 - 0.40p, (D) 0.40p - 20
Answer: C
Please answer the following question with just the correct option (A, B, C, or D) without any explanation or additional text.
Trish’s resting heart rate is 50 beats per minute. For every minute she exercises, her heart rate increases 5 beats per minute. How long will it take her to reach a heart rate of 120 beats per minute?
(A) '5 minutes', (B) '14 minutes', (C) '34 minutes', (D) '70 minutes'
Answer:","","","","","","","","","","","","","","","","","","","","","","feedback_imgs/Correct.png"
"call-function","17","235599","0.0-4.0-0.4","8ns15d0qgmh6w8n","5dcca2db88381e92c96b9ac5","67b62c430b9240ccd8986e70","67b6397fd5432c30bf9041f7","0","","","","","","defer","How many arithmetic sequences of consecutive odd integers sum to 240?","[""8"",""12"",""10"",""4""]","B","D","modiste","","B","14","algLinUCB_0.9","diff-topics","high_school_mathematics","The following are multiple choice questions about high_school_mathematics.
Colton and his dad bought a gallon of paint that cost $13. They also bought 2 brushes that cost $9 each. What was the total cost, not including tax, of the brushes and the paint they bought?
(A) $22, (B) $24, (C) $31, (D) $35
Answer: C
Solve for y. y – 2 + 3y = 10
(A) 2, (B) 3, (C) 4, (D) 5
Answer: B
Solve 3 over 2 * w = 66.
(A) 33, (B) 44, (C) 88, (D) 99
Answer: B
Write 5.875 as a mixed number or fraction in simplest form.
(A) 5 and 8 over 9, (B) 5 and 7 over 8, (C) 7 over 8, (D) 5 and 87 over 105
Answer: B
Solve the equation 124 = m + 34.
(A) 158, (B) 90, (C) 88, (D) 4,216
Answer: B
Zelma buys p pounds of bananas for 40 cents per pound. She pays the clerk with a twenty-dollar bill. The clerk subtracts the total cost of the bananas from the twenty-dollar bill to determine the amount of change to give Zelma. Which expression represents the amount of change Zelma should receive?
(A) p - 20, (B) 20 - 40p, (C) 20 - 0.40p, (D) 0.40p - 20
Answer: C
Please answer the following question with just the correct option (A, B, C, or D) without any explanation or additional text.
How many arithmetic sequences of consecutive odd integers sum to 240?
(A) '8', (B) '12', (C) '10', (D) '4'
Answer:","","","","","","","","","","","","","","","","","","","","","",""
"survey-html-form","18","311934","0.0-4.0-1.4","8ns15d0qgmh6w8n","5dcca2db88381e92c96b9ac5","67b62c430b9240ccd8986e70","67b6397fd5432c30bf9041f7","0","76331.59999990463","","","{""mcAnswer"":""A""}","","","How many arithmetic sequences of consecutive odd integers sum to 240?","[""8"",""12"",""10"",""4""]","B","D","modiste","","B","14","algLinUCB_0.9","diff-topics","high_school_mathematics","The following are multiple choice questions about high_school_mathematics.
Colton and his dad bought a gallon of paint that cost $13. They also bought 2 brushes that cost $9 each. What was the total cost, not including tax, of the brushes and the paint they bought?
(A) $22, (B) $24, (C) $31, (D) $35
Answer: C
Solve for y. y – 2 + 3y = 10
(A) 2, (B) 3, (C) 4, (D) 5
Answer: B
Solve 3 over 2 * w = 66.
(A) 33, (B) 44, (C) 88, (D) 99
Answer: B
Write 5.875 as a mixed number or fraction in simplest form.
(A) 5 and 8 over 9, (B) 5 and 7 over 8, (C) 7 over 8, (D) 5 and 87 over 105
Answer: B
Solve the equation 124 = m + 34.
(A) 158, (B) 90, (C) 88, (D) 4,216
Answer: B
Zelma buys p pounds of bananas for 40 cents per pound. She pays the clerk with a twenty-dollar bill. The clerk subtracts the total cost of the bananas from the twenty-dollar bill to determine the amount of change to give Zelma. Which expression represents the amount of change Zelma should receive?
(A) p - 20, (B) 20 - 40p, (C) 20 - 0.40p, (D) 0.40p - 20
Answer: C
Please answer the following question with just the correct option (A, B, C, or D) without any explanation or additional text.
How many arithmetic sequences of consecutive odd integers sum to 240?
(A) '8', (B) '12', (C) '10', (D) '4'
Answer:","","","","","","","","","","","","","","","","","","","","","",""
"","","","","","","","","","","","","","","","","","","","","","","","","","","","A","","","","","","","","","","","","","","","","","","","","",""
"","","","","","","","","","","","","","","","","","","","","","","","","","","","","false","140","-1","B","false","true","defer","[]","false","0","false","0","{""elementary_mathematics"":[""40/50"",""31/50"",""8/9""],""high_school_mathematics"":[""27/50"",""22/50"",""3/6""],""college_mathematics"":[""22/50"",""26/50"",""2 / 5""]}","{""elementary_mathematics"":false,""high_school_mathematics"":true}","You should attempt this problem by yourself","null","null","null","null","true",""
"image-keyboard-response","19","313438","0.0-4.0-2.4","8ns15d0qgmh6w8n","5dcca2db88381e92c96b9ac5","67b62c430b9240ccd8986e70","67b6397fd5432c30bf9041f7","0","null","","","null","","","How many arithmetic sequences of consecutive odd integers sum to 240?","[""8"",""12"",""10"",""4""]","B","D","modiste","","B","14","algLinUCB_0.9","diff-topics","high_school_mathematics","The following are multiple choice questions about high_school_mathematics.
Colton and his dad bought a gallon of paint that cost $13. They also bought 2 brushes that cost $9 each. What was the total cost, not including tax, of the brushes and the paint they bought?
(A) $22, (B) $24, (C) $31, (D) $35
Answer: C
Solve for y. y – 2 + 3y = 10
(A) 2, (B) 3, (C) 4, (D) 5
Answer: B
Solve 3 over 2 * w = 66.
(A) 33, (B) 44, (C) 88, (D) 99
Answer: B
Write 5.875 as a mixed number or fraction in simplest form.
(A) 5 and 8 over 9, (B) 5 and 7 over 8, (C) 7 over 8, (D) 5 and 87 over 105
Answer: B
Solve the equation 124 = m + 34.
(A) 158, (B) 90, (C) 88, (D) 4,216
Answer: B
Zelma buys p pounds of bananas for 40 cents per pound. She pays the clerk with a twenty-dollar bill. The clerk subtracts the total cost of the bananas from the twenty-dollar bill to determine the amount of change to give Zelma. Which expression represents the amount of change Zelma should receive?
(A) p - 20, (B) 20 - 40p, (C) 20 - 0.40p, (D) 0.40p - 20
Answer: C
Please answer the following question with just the correct option (A, B, C, or D) without any explanation or additional text.
How many arithmetic sequences of consecutive odd integers sum to 240?
(A) '8', (B) '12', (C) '10', (D) '4'
Answer:","","","","","","","","","","","","","","","","","","","","","","feedback_imgs/Incorrect.png"
"call-function","20","313438","0.0-4.0-0.5","8ns15d0qgmh6w8n","5dcca2db88381e92c96b9ac5","67b62c430b9240ccd8986e70","67b6397fd5432c30bf9041f7","0","","","","","","defer","Let k be the number of real solutions of the equation e^x + x - 2 = 0 in the interval [0, 1], and let n be the number of real solutions that are not in [0, 1]. Which of the following is true?","[""k = 0 and n = 1"",""k = 1 and n = 0"",""k = n = 1"",""k > 1""]","B","B","modiste","","B","40","algLinUCB_0.9","diff-topics","college_mathematics","The following are multiple choice questions about high_school_mathematics.
Colton and his dad bought a gallon of paint that cost $13. They also bought 2 brushes that cost $9 each. What was the total cost, not including tax, of the brushes and the paint they bought?
(A) $22, (B) $24, (C) $31, (D) $35
Answer: C
Solve for y. y – 2 + 3y = 10
(A) 2, (B) 3, (C) 4, (D) 5
Answer: B
Solve 3 over 2 * w = 66.
(A) 33, (B) 44, (C) 88, (D) 99
Answer: B
Write 5.875 as a mixed number or fraction in simplest form.
(A) 5 and 8 over 9, (B) 5 and 7 over 8, (C) 7 over 8, (D) 5 and 87 over 105
Answer: B
Solve the equation 124 = m + 34.
(A) 158, (B) 90, (C) 88, (D) 4,216
Answer: B
Zelma buys p pounds of bananas for 40 cents per pound. She pays the clerk with a twenty-dollar bill. The clerk subtracts the total cost of the bananas from the twenty-dollar bill to determine the amount of change to give Zelma. Which expression represents the amount of change Zelma should receive?
(A) p - 20, (B) 20 - 40p, (C) 20 - 0.40p, (D) 0.40p - 20
Answer: C
Please answer the following question with just the correct option (A, B, C, or D) without any explanation or additional text.
Let k be the number of real solutions of the equation e^x + x - 2 = 0 in the interval [0, 1], and let n be the number of real solutions that are not in [0, 1]. Which of the following is true?
(A) 'k = 0 and n = 1', (B) 'k = 1 and n = 0', (C) 'k = n = 1', (D) 'k > 1'
Answer:","","","","","","","","","","","","true","2","","","","","","","","",""
"survey-html-form","21","343001","0.0-4.0-1.5","8ns15d0qgmh6w8n","5dcca2db88381e92c96b9ac5","67b62c430b9240ccd8986e70","67b6397fd5432c30bf9041f7","0","29558.300000071526","","","{""mcAnswer"":""B""}","","","Let k be the number of real solutions of the equation e^x + x - 2 = 0 in the interval [0, 1], and let n be the number of real solutions that are not in [0, 1]. Which of the following is true?","[""k = 0 and n = 1"",""k = 1 and n = 0"",""k = n = 1"",""k > 1""]","B","B","modiste","","B","40","algLinUCB_0.9","diff-topics","college_mathematics","The following are multiple choice questions about high_school_mathematics.
Colton and his dad bought a gallon of paint that cost $13. They also bought 2 brushes that cost $9 each. What was the total cost, not including tax, of the brushes and the paint they bought?
(A) $22, (B) $24, (C) $31, (D) $35
Answer: C
Solve for y. y – 2 + 3y = 10
(A) 2, (B) 3, (C) 4, (D) 5
Answer: B
Solve 3 over 2 * w = 66.
(A) 33, (B) 44, (C) 88, (D) 99
Answer: B
Write 5.875 as a mixed number or fraction in simplest form.
(A) 5 and 8 over 9, (B) 5 and 7 over 8, (C) 7 over 8, (D) 5 and 87 over 105
Answer: B
Solve the equation 124 = m + 34.
(A) 158, (B) 90, (C) 88, (D) 4,216
Answer: B
Zelma buys p pounds of bananas for 40 cents per pound. She pays the clerk with a twenty-dollar bill. The clerk subtracts the total cost of the bananas from the twenty-dollar bill to determine the amount of change to give Zelma. Which expression represents the amount of change Zelma should receive?
(A) p - 20, (B) 20 - 40p, (C) 20 - 0.40p, (D) 0.40p - 20
Answer: C
Please answer the following question with just the correct option (A, B, C, or D) without any explanation or additional text.
Let k be the number of real solutions of the equation e^x + x - 2 = 0 in the interval [0, 1], and let n be the number of real solutions that are not in [0, 1]. Which of the following is true?
(A) 'k = 0 and n = 1', (B) 'k = 1 and n = 0', (C) 'k = n = 1', (D) 'k > 1'
Answer:","","","","","","","","","","","","","","","","","","","","","",""
"","","","","","","","","","","","","","","","","","","","","","","","","","","","B","","","","","","","","","","","","","","","","","","","","",""
"","","","","","","","","","","","","","","","","","","","","","","","","","","","","false","147","-1","B","true","true","defer","[]","false","0","true","2","{""elementary_mathematics"":[""40/50"",""31/50"",""8/9""],""high_school_mathematics"":[""27/50"",""22/50"",""3/6""],""college_mathematics"":[""22/50"",""27/51"",""2 / 5""]}","{""elementary_mathematics"":false,""high_school_mathematics"":true,""college_mathematics"":false}","You should outsource this problem to the AI agent","false","null","true","null","null",""
"image-keyboard-response","22","344511","0.0-4.0-2.5","8ns15d0qgmh6w8n","5dcca2db88381e92c96b9ac5","67b62c430b9240ccd8986e70","67b6397fd5432c30bf9041f7","0","null","","","null","","","Let k be the number of real solutions of the equation e^x + x - 2 = 0 in the interval [0, 1], and let n be the number of real solutions that are not in [0, 1]. Which of the following is true?","[""k = 0 and n = 1"",""k = 1 and n = 0"",""k = n = 1"",""k > 1""]","B","B","modiste","","B","40","algLinUCB_0.9","diff-topics","college_mathematics","The following are multiple choice questions about high_school_mathematics.
Colton and his dad bought a gallon of paint that cost $13. They also bought 2 brushes that cost $9 each. What was the total cost, not including tax, of the brushes and the paint they bought?
(A) $22, (B) $24, (C) $31, (D) $35
Answer: C
Solve for y. y – 2 + 3y = 10
(A) 2, (B) 3, (C) 4, (D) 5
Answer: B
Solve 3 over 2 * w = 66.
(A) 33, (B) 44, (C) 88, (D) 99
Answer: B
Write 5.875 as a mixed number or fraction in simplest form.
(A) 5 and 8 over 9, (B) 5 and 7 over 8, (C) 7 over 8, (D) 5 and 87 over 105
Answer: B
Solve the equation 124 = m + 34.
(A) 158, (B) 90, (C) 88, (D) 4,216
Answer: B
Zelma buys p pounds of bananas for 40 cents per pound. She pays the clerk with a twenty-dollar bill. The clerk subtracts the total cost of the bananas from the twenty-dollar bill to determine the amount of change to give Zelma. Which expression represents the amount of change Zelma should receive?
(A) p - 20, (B) 20 - 40p, (C) 20 - 0.40p, (D) 0.40p - 20
Answer: C
Please answer the following question with just the correct option (A, B, C, or D) without any explanation or additional text.
Let k be the number of real solutions of the equation e^x + x - 2 = 0 in the interval [0, 1], and let n be the number of real solutions that are not in [0, 1]. Which of the following is true?
(A) 'k = 0 and n = 1', (B) 'k = 1 and n = 0', (C) 'k = n = 1', (D) 'k > 1'
Answer:","","","","","","","","","","","","","","","","","","","","","","feedback_imgs/Correct.png"
"call-function","23","344512","0.0-4.0-0.6","8ns15d0qgmh6w8n","5dcca2db88381e92c96b9ac5","67b62c430b9240ccd8986e70","67b6397fd5432c30bf9041f7","0","","","","","","defer","Find the quotient of 5.04/0.7","[""0.72"",""0.702"",""10.0571"",""7.2""]","D","D","modiste","","D","29","algLinUCB_0.9","diff-topics","elementary_mathematics","The following are multiple choice questions about high_school_mathematics.
Colton and his dad bought a gallon of paint that cost $13. They also bought 2 brushes that cost $9 each. What was the total cost, not including tax, of the brushes and the paint they bought?
(A) $22, (B) $24, (C) $31, (D) $35
Answer: C
Solve for y. y – 2 + 3y = 10
(A) 2, (B) 3, (C) 4, (D) 5
Answer: B
Solve 3 over 2 * w = 66.
(A) 33, (B) 44, (C) 88, (D) 99
Answer: B
Write 5.875 as a mixed number or fraction in simplest form.
(A) 5 and 8 over 9, (B) 5 and 7 over 8, (C) 7 over 8, (D) 5 and 87 over 105
Answer: B
Solve the equation 124 = m + 34.
(A) 158, (B) 90, (C) 88, (D) 4,216
Answer: B
Zelma buys p pounds of bananas for 40 cents per pound. She pays the clerk with a twenty-dollar bill. The clerk subtracts the total cost of the bananas from the twenty-dollar bill to determine the amount of change to give Zelma. Which expression represents the amount of change Zelma should receive?
(A) p - 20, (B) 20 - 40p, (C) 20 - 0.40p, (D) 0.40p - 20
Answer: C
Please answer the following question with just the correct option (A, B, C, or D) without any explanation or additional text.
Find the quotient of 5.04/0.7
(A) '0.72', (B) '0.702', (C) '10.0571', (D) '7.2'
Answer:","","","","","","","","","","","","","","","","","","","","","",""
"survey-html-form","24","358578","0.0-4.0-1.6","8ns15d0qgmh6w8n","5dcca2db88381e92c96b9ac5","67b62c430b9240ccd8986e70","67b6397fd5432c30bf9041f7","0","14062.400000095367","","","{""mcAnswer"":""D""}","","","Find the quotient of 5.04/0.7","[""0.72"",""0.702"",""10.0571"",""7.2""]","D","D","modiste","","D","29","algLinUCB_0.9","diff-topics","elementary_mathematics","The following are multiple choice questions about high_school_mathematics.
Colton and his dad bought a gallon of paint that cost $13. They also bought 2 brushes that cost $9 each. What was the total cost, not including tax, of the brushes and the paint they bought?
(A) $22, (B) $24, (C) $31, (D) $35
Answer: C
Solve for y. y – 2 + 3y = 10
(A) 2, (B) 3, (C) 4, (D) 5
Answer: B
Solve 3 over 2 * w = 66.
(A) 33, (B) 44, (C) 88, (D) 99
Answer: B
Write 5.875 as a mixed number or fraction in simplest form.
(A) 5 and 8 over 9, (B) 5 and 7 over 8, (C) 7 over 8, (D) 5 and 87 over 105
Answer: B
Solve the equation 124 = m + 34.
(A) 158, (B) 90, (C) 88, (D) 4,216
Answer: B
Zelma buys p pounds of bananas for 40 cents per pound. She pays the clerk with a twenty-dollar bill. The clerk subtracts the total cost of the bananas from the twenty-dollar bill to determine the amount of change to give Zelma. Which expression represents the amount of change Zelma should receive?
(A) p - 20, (B) 20 - 40p, (C) 20 - 0.40p, (D) 0.40p - 20
Answer: C
Please answer the following question with just the correct option (A, B, C, or D) without any explanation or additional text.
Find the quotient of 5.04/0.7
(A) '0.72', (B) '0.702', (C) '10.0571', (D) '7.2'
Answer:","","","","","","","","","","","","","","","","","","","","","",""
"","","","","","","","","","","","","","","","","","","","","","","","","","","","D","","","","","","","","","","","","","","","","","","","","",""
"","","","","","","","","","","","","","","","","","","","","","","","","","","","","false","157","-1","D","true","true","defer","[]","false","0","false","0","{""elementary_mathematics"":[""40/50"",""31/50"",""9/10""],""high_school_mathematics"":[""27/50"",""22/50"",""3/6""],""college_mathematics"":[""22/50"",""27/51"",""2 / 5""]}","{""elementary_mathematics"":false,""high_school_mathematics"":true,""college_mathematics"":false}","You should attempt this problem by yourself","null","null","null","null","true",""
"image-keyboard-response","25","360082","0.0-4.0-2.6","8ns15d0qgmh6w8n","5dcca2db88381e92c96b9ac5","67b62c430b9240ccd8986e70","67b6397fd5432c30bf9041f7","0","null","","","null","","","Find the quotient of 5.04/0.7","[""0.72"",""0.702"",""10.0571"",""7.2""]","D","D","modiste","","D","29","algLinUCB_0.9","diff-topics","elementary_mathematics","The following are multiple choice questions about high_school_mathematics.
Colton and his dad bought a gallon of paint that cost $13. They also bought 2 brushes that cost $9 each. What was the total cost, not including tax, of the brushes and the paint they bought?
(A) $22, (B) $24, (C) $31, (D) $35
Answer: C
Solve for y. y – 2 + 3y = 10
(A) 2, (B) 3, (C) 4, (D) 5
Answer: B
Solve 3 over 2 * w = 66.
(A) 33, (B) 44, (C) 88, (D) 99
Answer: B
Write 5.875 as a mixed number or fraction in simplest form.
(A) 5 and 8 over 9, (B) 5 and 7 over 8, (C) 7 over 8, (D) 5 and 87 over 105
Answer: B
Solve the equation 124 = m + 34.
(A) 158, (B) 90, (C) 88, (D) 4,216
Answer: B
Zelma buys p pounds of bananas for 40 cents per pound. She pays the clerk with a twenty-dollar bill. The clerk subtracts the total cost of the bananas from the twenty-dollar bill to determine the amount of change to give Zelma. Which expression represents the amount of change Zelma should receive?
(A) p - 20, (B) 20 - 40p, (C) 20 - 0.40p, (D) 0.40p - 20
Answer: C
Please answer the following question with just the correct option (A, B, C, or D) without any explanation or additional text.
Find the quotient of 5.04/0.7
(A) '0.72', (B) '0.702', (C) '10.0571', (D) '7.2'
Answer:","","","","","","","","","","","","","","","","","","","","","","feedback_imgs/Correct.png"
"call-function","26","360084","0.0-4.0-0.7","8ns15d0qgmh6w8n","5dcca2db88381e92c96b9ac5","67b62c430b9240ccd8986e70","67b6397fd5432c30bf9041f7","0","","","","","","defer","What is the remainder when 2^{87} +3 is divided by 7?","[""0"",""1"",""2"",""4""]","B","B","modiste","","D","17","algLinUCB_0.9","diff-topics","high_school_mathematics","The following are multiple choice questions about high_school_mathematics.
Colton and his dad bought a gallon of paint that cost $13. They also bought 2 brushes that cost $9 each. What was the total cost, not including tax, of the brushes and the paint they bought?
(A) $22, (B) $24, (C) $31, (D) $35
Answer: C
Solve for y. y – 2 + 3y = 10
(A) 2, (B) 3, (C) 4, (D) 5
Answer: B
Solve 3 over 2 * w = 66.
(A) 33, (B) 44, (C) 88, (D) 99
Answer: B
Write 5.875 as a mixed number or fraction in simplest form.
(A) 5 and 8 over 9, (B) 5 and 7 over 8, (C) 7 over 8, (D) 5 and 87 over 105
Answer: B
Solve the equation 124 = m + 34.
(A) 158, (B) 90, (C) 88, (D) 4,216
Answer: B
Zelma buys p pounds of bananas for 40 cents per pound. She pays the clerk with a twenty-dollar bill. The clerk subtracts the total cost of the bananas from the twenty-dollar bill to determine the amount of change to give Zelma. Which expression represents the amount of change Zelma should receive?
(A) p - 20, (B) 20 - 40p, (C) 20 - 0.40p, (D) 0.40p - 20
Answer: C
Please answer the following question with just the correct option (A, B, C, or D) without any explanation or additional text.
What is the remainder when 2^{87} +3 is divided by 7?
(A) '0', (B) '1', (C) '2', (D) '4'
Answer:","","","","","","","","","","true","2","","","","","","","","","","",""
"survey-html-form","27","427523","0.0-4.0-1.7","8ns15d0qgmh6w8n","5dcca2db88381e92c96b9ac5","67b62c430b9240ccd8986e70","67b6397fd5432c30bf9041f7","0","67435.09999990463","","","{""mcAnswer"":""B""}","","","What is the remainder when 2^{87} +3 is divided by 7?","[""0"",""1"",""2"",""4""]","B","B","modiste","","D","17","algLinUCB_0.9","diff-topics","high_school_mathematics","The following are multiple choice questions about high_school_mathematics.
Colton and his dad bought a gallon of paint that cost $13. They also bought 2 brushes that cost $9 each. What was the total cost, not including tax, of the brushes and the paint they bought?
(A) $22, (B) $24, (C) $31, (D) $35
Answer: C
Solve for y. y – 2 + 3y = 10
(A) 2, (B) 3, (C) 4, (D) 5
Answer: B
Solve 3 over 2 * w = 66.
(A) 33, (B) 44, (C) 88, (D) 99
Answer: B
Write 5.875 as a mixed number or fraction in simplest form.
(A) 5 and 8 over 9, (B) 5 and 7 over 8, (C) 7 over 8, (D) 5 and 87 over 105
Answer: B
Solve the equation 124 = m + 34.
(A) 158, (B) 90, (C) 88, (D) 4,216
Answer: B
Zelma buys p pounds of bananas for 40 cents per pound. She pays the clerk with a twenty-dollar bill. The clerk subtracts the total cost of the bananas from the twenty-dollar bill to determine the amount of change to give Zelma. Which expression represents the amount of change Zelma should receive?
(A) p - 20, (B) 20 - 40p, (C) 20 - 0.40p, (D) 0.40p - 20
Answer: C
Please answer the following question with just the correct option (A, B, C, or D) without any explanation or additional text.
What is the remainder when 2^{87} +3 is divided by 7?
(A) '0', (B) '1', (C) '2', (D) '4'
Answer:","","","","","","","","","","","","","","","","","","","","","",""
"","","","","","","","","","","","","","","","","","","","","","","","","","","","B","","","","","","","","","","","","","","","","","","","","",""
"","","","","","","","","","","","","","","","","","","","","","","","","","","","","false","150","-1","B","false","false","defer","[]","true","2","false","0","{""elementary_mathematics"":[""40/50"",""31/50"",""9/10""],""high_school_mathematics"":[""27/51"",""22/50"",""3/6""],""college_mathematics"":[""22/50"",""27/51"",""2 / 5""]}","{""elementary_mathematics"":false,""high_school_mathematics"":false,""college_mathematics"":false}","You were wrong by yourself on high_school_mathematics last time. You should outsource this problem to a human agent","null","false","null","true","null",""
"image-keyboard-response","28","429033","0.0-4.0-2.7","8ns15d0qgmh6w8n","5dcca2db88381e92c96b9ac5","67b62c430b9240ccd8986e70","67b6397fd5432c30bf9041f7","0","null","","","null","","","What is the remainder when 2^{87} +3 is divided by 7?","[""0"",""1"",""2"",""4""]","B","B","modiste","","D","17","algLinUCB_0.9","diff-topics","high_school_mathematics","The following are multiple choice questions about high_school_mathematics.
Colton and his dad bought a gallon of paint that cost $13. They also bought 2 brushes that cost $9 each. What was the total cost, not including tax, of the brushes and the paint they bought?
(A) $22, (B) $24, (C) $31, (D) $35
Answer: C
Solve for y. y – 2 + 3y = 10
(A) 2, (B) 3, (C) 4, (D) 5
Answer: B
Solve 3 over 2 * w = 66.
(A) 33, (B) 44, (C) 88, (D) 99
Answer: B
Write 5.875 as a mixed number or fraction in simplest form.
(A) 5 and 8 over 9, (B) 5 and 7 over 8, (C) 7 over 8, (D) 5 and 87 over 105
Answer: B
Solve the equation 124 = m + 34.
(A) 158, (B) 90, (C) 88, (D) 4,216
Answer: B
Zelma buys p pounds of bananas for 40 cents per pound. She pays the clerk with a twenty-dollar bill. The clerk subtracts the total cost of the bananas from the twenty-dollar bill to determine the amount of change to give Zelma. Which expression represents the amount of change Zelma should receive?
(A) p - 20, (B) 20 - 40p, (C) 20 - 0.40p, (D) 0.40p - 20
Answer: C
Please answer the following question with just the correct option (A, B, C, or D) without any explanation or additional text.
What is the remainder when 2^{87} +3 is divided by 7?
(A) '0', (B) '1', (C) '2', (D) '4'
Answer:","","","","","","","","","","","","","","","","","","","","","","feedback_imgs/Incorrect.png"
"call-function","29","429034","0.0-4.0-0.8","8ns15d0qgmh6w8n","5dcca2db88381e92c96b9ac5","67b62c430b9240ccd8986e70","67b6397fd5432c30bf9041f7","0","","","","","","defer","Consider a segment of length 10. Points A and B are chosen randomly such that A and B divide the segment into three smaller segments. What is the probability that the three smaller segments could form the sides of a triangle?","[""0"",""10%"",""25%"",""50%""]","C","C","modiste","","C","47","algLinUCB_0.9","diff-topics","college_mathematics","The following are multiple choice questions about high_school_mathematics.
Colton and his dad bought a gallon of paint that cost $13. They also bought 2 brushes that cost $9 each. What was the total cost, not including tax, of the brushes and the paint they bought?
(A) $22, (B) $24, (C) $31, (D) $35
Answer: C
Solve for y. y – 2 + 3y = 10
(A) 2, (B) 3, (C) 4, (D) 5
Answer: B
Solve 3 over 2 * w = 66.
(A) 33, (B) 44, (C) 88, (D) 99
Answer: B
Write 5.875 as a mixed number or fraction in simplest form.
(A) 5 and 8 over 9, (B) 5 and 7 over 8, (C) 7 over 8, (D) 5 and 87 over 105
Answer: B
Solve the equation 124 = m + 34.
(A) 158, (B) 90, (C) 88, (D) 4,216
Answer: B
Zelma buys p pounds of bananas for 40 cents per pound. She pays the clerk with a twenty-dollar bill. The clerk subtracts the total cost of the bananas from the twenty-dollar bill to determine the amount of change to give Zelma. Which expression represents the amount of change Zelma should receive?
(A) p - 20, (B) 20 - 40p, (C) 20 - 0.40p, (D) 0.40p - 20
Answer: C
Please answer the following question with just the correct option (A, B, C, or D) without any explanation or additional text.
Consider a segment of length 10. Points A and B are chosen randomly such that A and B divide the segment into three smaller segments. What is the probability that the three smaller segments could form the sides of a triangle?
(A) '0', (B) '10%', (C) '25%', (D) '50%'
Answer:","","","","","","","","","","","","","","","","","","","","","",""
"survey-html-form","30","454387","0.0-4.0-1.8","8ns15d0qgmh6w8n","5dcca2db88381e92c96b9ac5","67b62c430b9240ccd8986e70","67b6397fd5432c30bf9041f7","0","25346.399999976158","","","{""mcAnswer"":""D""}","","","Consider a segment of length 10. Points A and B are chosen randomly such that A and B divide the segment into three smaller segments. What is the probability that the three smaller segments could form the sides of a triangle?","[""0"",""10%"",""25%"",""50%""]","C","C","modiste","","C","47","algLinUCB_0.9","diff-topics","college_mathematics","The following are multiple choice questions about high_school_mathematics.
Colton and his dad bought a gallon of paint that cost $13. They also bought 2 brushes that cost $9 each. What was the total cost, not including tax, of the brushes and the paint they bought?
(A) $22, (B) $24, (C) $31, (D) $35
Answer: C
Solve for y. y – 2 + 3y = 10
(A) 2, (B) 3, (C) 4, (D) 5
Answer: B
Solve 3 over 2 * w = 66.
(A) 33, (B) 44, (C) 88, (D) 99
Answer: B
Write 5.875 as a mixed number or fraction in simplest form.
(A) 5 and 8 over 9, (B) 5 and 7 over 8, (C) 7 over 8, (D) 5 and 87 over 105
Answer: B
Solve the equation 124 = m + 34.
(A) 158, (B) 90, (C) 88, (D) 4,216
Answer: B
Zelma buys p pounds of bananas for 40 cents per pound. She pays the clerk with a twenty-dollar bill. The clerk subtracts the total cost of the bananas from the twenty-dollar bill to determine the amount of change to give Zelma. Which expression represents the amount of change Zelma should receive?
(A) p - 20, (B) 20 - 40p, (C) 20 - 0.40p, (D) 0.40p - 20
Answer: C
Please answer the following question with just the correct option (A, B, C, or D) without any explanation or additional text.
Consider a segment of length 10. Points A and B are chosen randomly such that A and B divide the segment into three smaller segments. What is the probability that the three smaller segments could form the sides of a triangle?
(A) '0', (B) '10%', (C) '25%', (D) '50%'
Answer:","","","","","","","","","","","","","","","","","","","","","",""
"","","","","","","","","","","","","","","","","","","","","","","","","","","","D","","","","","","","","","","","","","","","","","","","","",""
"","","","","","","","","","","","","","","","","","","","","","","","","","","","","false","150","-1","C","false","true","defer","[]","false","0","false","0","{""elementary_mathematics"":[""40/50"",""31/50"",""9/10""],""high_school_mathematics"":[""27/51"",""22/50"",""3/6""],""college_mathematics"":[""22/50"",""27/51"",""2/6""]}","{""elementary_mathematics"":false,""high_school_mathematics"":false,""college_mathematics"":true}","You should outsource this problem to the AI agent","null","null","false","null","null",""
"image-keyboard-response","31","455892","0.0-4.0-2.8","8ns15d0qgmh6w8n","5dcca2db88381e92c96b9ac5","67b62c430b9240ccd8986e70","67b6397fd5432c30bf9041f7","0","null","","","null","","","Consider a segment of length 10. Points A and B are chosen randomly such that A and B divide the segment into three smaller segments. What is the probability that the three smaller segments could form the sides of a triangle?","[""0"",""10%"",""25%"",""50%""]","C","C","modiste","","C","47","algLinUCB_0.9","diff-topics","college_mathematics","The following are multiple choice questions about high_school_mathematics.
Colton and his dad bought a gallon of paint that cost $13. They also bought 2 brushes that cost $9 each. What was the total cost, not including tax, of the brushes and the paint they bought?
(A) $22, (B) $24, (C) $31, (D) $35
Answer: C
Solve for y. y – 2 + 3y = 10
(A) 2, (B) 3, (C) 4, (D) 5
Answer: B
Solve 3 over 2 * w = 66.
(A) 33, (B) 44, (C) 88, (D) 99
Answer: B
Write 5.875 as a mixed number or fraction in simplest form.
(A) 5 and 8 over 9, (B) 5 and 7 over 8, (C) 7 over 8, (D) 5 and 87 over 105
Answer: B
Solve the equation 124 = m + 34.
(A) 158, (B) 90, (C) 88, (D) 4,216
Answer: B
Zelma buys p pounds of bananas for 40 cents per pound. She pays the clerk with a twenty-dollar bill. The clerk subtracts the total cost of the bananas from the twenty-dollar bill to determine the amount of change to give Zelma. Which expression represents the amount of change Zelma should receive?
(A) p - 20, (B) 20 - 40p, (C) 20 - 0.40p, (D) 0.40p - 20
Answer: C
Please answer the following question with just the correct option (A, B, C, or D) without any explanation or additional text.
Consider a segment of length 10. Points A and B are chosen randomly such that A and B divide the segment into three smaller segments. What is the probability that the three smaller segments could form the sides of a triangle?
(A) '0', (B) '10%', (C) '25%', (D) '50%'
Answer:","","","","","","","","","","","","","","","","","","","","","","feedback_imgs/Incorrect.png"
"call-function","32","455893","0.0-4.0-0.9","8ns15d0qgmh6w8n","5dcca2db88381e92c96b9ac5","67b62c430b9240ccd8986e70","67b6397fd5432c30bf9041f7","0","","","","","","defer","Let x_1 = 1 and x_(n+1) = sqrt(3+2x_n) for all positive integers n. If it is assumed that {x_n} converges, then lim x_n =","[""3"",""e"",""sqrt(5)"",""0""]","A","A","modiste","","A","59","algLinUCB_0.9","diff-topics","college_mathematics","The following are multiple choice questions about high_school_mathematics.
Colton and his dad bought a gallon of paint that cost $13. They also bought 2 brushes that cost $9 each. What was the total cost, not including tax, of the brushes and the paint they bought?
(A) $22, (B) $24, (C) $31, (D) $35
Answer: C
Solve for y. y – 2 + 3y = 10
(A) 2, (B) 3, (C) 4, (D) 5
Answer: B
Solve 3 over 2 * w = 66.
(A) 33, (B) 44, (C) 88, (D) 99
Answer: B
Write 5.875 as a mixed number or fraction in simplest form.
(A) 5 and 8 over 9, (B) 5 and 7 over 8, (C) 7 over 8, (D) 5 and 87 over 105
Answer: B
Solve the equation 124 = m + 34.
(A) 158, (B) 90, (C) 88, (D) 4,216
Answer: B
Zelma buys p pounds of bananas for 40 cents per pound. She pays the clerk with a twenty-dollar bill. The clerk subtracts the total cost of the bananas from the twenty-dollar bill to determine the amount of change to give Zelma. Which expression represents the amount of change Zelma should receive?
(A) p - 20, (B) 20 - 40p, (C) 20 - 0.40p, (D) 0.40p - 20
Answer: C
Please answer the following question with just the correct option (A, B, C, or D) without any explanation or additional text.
Let x_1 = 1 and x_(n+1) = sqrt(3+2x_n) for all positive integers n. If it is assumed that {x_n} converges, then lim x_n =
(A) '3', (B) 'e', (C) 'sqrt(5)', (D) '0'
Answer:","","","","","","","","","","","","true","2","","","","","","","","",""
"survey-html-form","33","469908","0.0-4.0-1.9","8ns15d0qgmh6w8n","5dcca2db88381e92c96b9ac5","67b62c430b9240ccd8986e70","67b6397fd5432c30bf9041f7","0","14011.800000071526","","","{""mcAnswer"":""A""}","","","Let x_1 = 1 and x_(n+1) = sqrt(3+2x_n) for all positive integers n. If it is assumed that {x_n} converges, then lim x_n =","[""3"",""e"",""sqrt(5)"",""0""]","A","A","modiste","","A","59","algLinUCB_0.9","diff-topics","college_mathematics","The following are multiple choice questions about high_school_mathematics.
Colton and his dad bought a gallon of paint that cost $13. They also bought 2 brushes that cost $9 each. What was the total cost, not including tax, of the brushes and the paint they bought?
(A) $22, (B) $24, (C) $31, (D) $35
Answer: C
Solve for y. y – 2 + 3y = 10
(A) 2, (B) 3, (C) 4, (D) 5
Answer: B
Solve 3 over 2 * w = 66.
(A) 33, (B) 44, (C) 88, (D) 99
Answer: B
Write 5.875 as a mixed number or fraction in simplest form.
(A) 5 and 8 over 9, (B) 5 and 7 over 8, (C) 7 over 8, (D) 5 and 87 over 105
Answer: B
Solve the equation 124 = m + 34.
(A) 158, (B) 90, (C) 88, (D) 4,216
Answer: B
Zelma buys p pounds of bananas for 40 cents per pound. She pays the clerk with a twenty-dollar bill. The clerk subtracts the total cost of the bananas from the twenty-dollar bill to determine the amount of change to give Zelma. Which expression represents the amount of change Zelma should receive?
(A) p - 20, (B) 20 - 40p, (C) 20 - 0.40p, (D) 0.40p - 20
Answer: C
Please answer the following question with just the correct option (A, B, C, or D) without any explanation or additional text.
Let x_1 = 1 and x_(n+1) = sqrt(3+2x_n) for all positive integers n. If it is assumed that {x_n} converges, then lim x_n =
(A) '3', (B) 'e', (C) 'sqrt(5)', (D) '0'
Answer:","","","","","","","","","","","","","","","","","","","","","",""
"","","","","","","","","","","","","","","","","","","","","","","","","","","","A","","","","","","","","","","","","","","","","","","","","",""
"","","","","","","","","","","","","","","","","","","","","","","","","","","","","false","157","-1","A","true","true","defer","[]","false","0","true","2","{""elementary_mathematics"":[""40/50"",""31/50"",""9/10""],""high_school_mathematics"":[""27/51"",""22/50"",""3/6""],""college_mathematics"":[""22/50"",""28/52"",""2/6""]}","{""elementary_mathematics"":false,""high_school_mathematics"":false,""college_mathematics"":false}","You were wrong by yourself on college_mathematics last time. You should outsource this problem to the AI agent","false","null","true","null","null",""
"image-keyboard-response","34","471416","0.0-4.0-2.9","8ns15d0qgmh6w8n","5dcca2db88381e92c96b9ac5","67b62c430b9240ccd8986e70","67b6397fd5432c30bf9041f7","0","null","","","null","","","Let x_1 = 1 and x_(n+1) = sqrt(3+2x_n) for all positive integers n. If it is assumed that {x_n} converges, then lim x_n =","[""3"",""e"",""sqrt(5)"",""0""]","A","A","modiste","","A","59","algLinUCB_0.9","diff-topics","college_mathematics","The following are multiple choice questions about high_school_mathematics.
Colton and his dad bought a gallon of paint that cost $13. They also bought 2 brushes that cost $9 each. What was the total cost, not including tax, of the brushes and the paint they bought?
(A) $22, (B) $24, (C) $31, (D) $35
Answer: C
Solve for y. y – 2 + 3y = 10
(A) 2, (B) 3, (C) 4, (D) 5
Answer: B
Solve 3 over 2 * w = 66.
(A) 33, (B) 44, (C) 88, (D) 99
Answer: B
Write 5.875 as a mixed number or fraction in simplest form.
(A) 5 and 8 over 9, (B) 5 and 7 over 8, (C) 7 over 8, (D) 5 and 87 over 105
Answer: B
Solve the equation 124 = m + 34.
(A) 158, (B) 90, (C) 88, (D) 4,216
Answer: B
Zelma buys p pounds of bananas for 40 cents per pound. She pays the clerk with a twenty-dollar bill. The clerk subtracts the total cost of the bananas from the twenty-dollar bill to determine the amount of change to give Zelma. Which expression represents the amount of change Zelma should receive?
(A) p - 20, (B) 20 - 40p, (C) 20 - 0.40p, (D) 0.40p - 20
Answer: C
Please answer the following question with just the correct option (A, B, C, or D) without any explanation or additional text.
Let x_1 = 1 and x_(n+1) = sqrt(3+2x_n) for all positive integers n. If it is assumed that {x_n} converges, then lim x_n =
(A) '3', (B) 'e', (C) 'sqrt(5)', (D) '0'
Answer:","","","","","","","","","","","","","","","","","","","","","","feedback_imgs/Correct.png"
"call-function","35","471416","0.0-4.0-0.10","8ns15d0qgmh6w8n","5dcca2db88381e92c96b9ac5","67b62c430b9240ccd8986e70","67b6397fd5432c30bf9041f7","0","","","","","","defer","Let F be a constant unit force that is parallel to the vector (-1, 0, 1) in xyz-space. What is the work done by F on a particle that moves along the path given by (t, t^2, t^3) between time t=0 and time t=1?","[""-1/4"",""-1/(4sqrt(2))"",""0"",""sqrt(2)""]","C","B","modiste","","C","57","algLinUCB_0.9","diff-topics","college_mathematics","The following are multiple choice questions about high_school_mathematics.
Colton and his dad bought a gallon of paint that cost $13. They also bought 2 brushes that cost $9 each. What was the total cost, not including tax, of the brushes and the paint they bought?
(A) $22, (B) $24, (C) $31, (D) $35
Answer: C
Solve for y. y – 2 + 3y = 10
(A) 2, (B) 3, (C) 4, (D) 5
Answer: B
Solve 3 over 2 * w = 66.
(A) 33, (B) 44, (C) 88, (D) 99
Answer: B
Write 5.875 as a mixed number or fraction in simplest form.
(A) 5 and 8 over 9, (B) 5 and 7 over 8, (C) 7 over 8, (D) 5 and 87 over 105
Answer: B
Solve the equation 124 = m + 34.
(A) 158, (B) 90, (C) 88, (D) 4,216
Answer: B
Zelma buys p pounds of bananas for 40 cents per pound. She pays the clerk with a twenty-dollar bill. The clerk subtracts the total cost of the bananas from the twenty-dollar bill to determine the amount of change to give Zelma. Which expression represents the amount of change Zelma should receive?
(A) p - 20, (B) 20 - 40p, (C) 20 - 0.40p, (D) 0.40p - 20
Answer: C
Please answer the following question with just the correct option (A, B, C, or D) without any explanation or additional text.
Let F be a constant unit force that is parallel to the vector (-1, 0, 1) in xyz-space. What is the work done by F on a particle that moves along the path given by (t, t^2, t^3) between time t=0 and time t=1?
(A) '-1/4', (B) '-1/(4sqrt(2))', (C) '0', (D) 'sqrt(2)'
Answer:","","","","","","","","","","","","true","2","","","","","","","","",""
"survey-html-form","36","485474","0.0-4.0-1.10","8ns15d0qgmh6w8n","5dcca2db88381e92c96b9ac5","67b62c430b9240ccd8986e70","67b6397fd5432c30bf9041f7","0","14054","","","{""mcAnswer"":""C""}","","","Let F be a constant unit force that is parallel to the vector (-1, 0, 1) in xyz-space. What is the work done by F on a particle that moves along the path given by (t, t^2, t^3) between time t=0 and time t=1?","[""-1/4"",""-1/(4sqrt(2))"",""0"",""sqrt(2)""]","C","B","modiste","","C","57","algLinUCB_0.9","diff-topics","college_mathematics","The following are multiple choice questions about high_school_mathematics.
Colton and his dad bought a gallon of paint that cost $13. They also bought 2 brushes that cost $9 each. What was the total cost, not including tax, of the brushes and the paint they bought?
(A) $22, (B) $24, (C) $31, (D) $35
Answer: C
Solve for y. y – 2 + 3y = 10
(A) 2, (B) 3, (C) 4, (D) 5
Answer: B
Solve 3 over 2 * w = 66.
(A) 33, (B) 44, (C) 88, (D) 99
Answer: B
Write 5.875 as a mixed number or fraction in simplest form.
(A) 5 and 8 over 9, (B) 5 and 7 over 8, (C) 7 over 8, (D) 5 and 87 over 105
Answer: B
Solve the equation 124 = m + 34.
(A) 158, (B) 90, (C) 88, (D) 4,216
Answer: B
Zelma buys p pounds of bananas for 40 cents per pound. She pays the clerk with a twenty-dollar bill. The clerk subtracts the total cost of the bananas from the twenty-dollar bill to determine the amount of change to give Zelma. Which expression represents the amount of change Zelma should receive?
(A) p - 20, (B) 20 - 40p, (C) 20 - 0.40p, (D) 0.40p - 20
Answer: C
Please answer the following question with just the correct option (A, B, C, or D) without any explanation or additional text.
Let F be a constant unit force that is parallel to the vector (-1, 0, 1) in xyz-space. What is the work done by F on a particle that moves along the path given by (t, t^2, t^3) between time t=0 and time t=1?
(A) '-1/4', (B) '-1/(4sqrt(2))', (C) '0', (D) 'sqrt(2)'
Answer:","","","","","","","","","","","","","","","","","","","","","",""
"","","","","","","","","","","","","","","","","","","","","","","","","","","","C","","","","","","","","","","","","","","","","","","","","",""
"","","","","","","","","","","","","","","","","","","","","","","","","","","","","false","164","-1","C","true","true","defer","[]","false","0","true","2","{""elementary_mathematics"":[""40/50"",""31/50"",""9/10""],""high_school_mathematics"":[""27/51"",""22/50"",""3/6""],""college_mathematics"":[""22/50"",""29/53"",""2/6""]}","{""elementary_mathematics"":false,""high_school_mathematics"":false,""college_mathematics"":false}","You should outsource this problem to the AI agent","false","null","true","null","null",""
"image-keyboard-response","37","486987","0.0-4.0-2.10","8ns15d0qgmh6w8n","5dcca2db88381e92c96b9ac5","67b62c430b9240ccd8986e70","67b6397fd5432c30bf9041f7","0","null","","","null","","","Let F be a constant unit force that is parallel to the vector (-1, 0, 1) in xyz-space. What is the work done by F on a particle that moves along the path given by (t, t^2, t^3) between time t=0 and time t=1?","[""-1/4"",""-1/(4sqrt(2))"",""0"",""sqrt(2)""]","C","B","modiste","","C","57","algLinUCB_0.9","diff-topics","college_mathematics","The following are multiple choice questions about high_school_mathematics.
Colton and his dad bought a gallon of paint that cost $13. They also bought 2 brushes that cost $9 each. What was the total cost, not including tax, of the brushes and the paint they bought?
(A) $22, (B) $24, (C) $31, (D) $35
Answer: C
Solve for y. y – 2 + 3y = 10
(A) 2, (B) 3, (C) 4, (D) 5
Answer: B
Solve 3 over 2 * w = 66.
(A) 33, (B) 44, (C) 88, (D) 99
Answer: B
Write 5.875 as a mixed number or fraction in simplest form.
(A) 5 and 8 over 9, (B) 5 and 7 over 8, (C) 7 over 8, (D) 5 and 87 over 105
Answer: B
Solve the equation 124 = m + 34.
(A) 158, (B) 90, (C) 88, (D) 4,216
Answer: B
Zelma buys p pounds of bananas for 40 cents per pound. She pays the clerk with a twenty-dollar bill. The clerk subtracts the total cost of the bananas from the twenty-dollar bill to determine the amount of change to give Zelma. Which expression represents the amount of change Zelma should receive?
(A) p - 20, (B) 20 - 40p, (C) 20 - 0.40p, (D) 0.40p - 20
Answer: C
Please answer the following question with just the correct option (A, B, C, or D) without any explanation or additional text.
Let F be a constant unit force that is parallel to the vector (-1, 0, 1) in xyz-space. What is the work done by F on a particle that moves along the path given by (t, t^2, t^3) between time t=0 and time t=1?
(A) '-1/4', (B) '-1/(4sqrt(2))', (C) '0', (D) 'sqrt(2)'
Answer:","","","","","","","","","","","","","","","","","","","","","","feedback_imgs/Correct.png"
"call-function","38","486987","0.0-4.0-0.11","8ns15d0qgmh6w8n","5dcca2db88381e92c96b9ac5","67b62c430b9240ccd8986e70","67b6397fd5432c30bf9041f7","0","","","","","","defer","Jimmy and Kima are going on a trip. They will drive for three days. The first day they will drive 182 miles. The second day they will drive 439 miles. The third day they will drive 217 miles. Which expression is the closest estimate of how many miles Jimmy and Kima will drive on their trip?","[""150 + 400 + 200"",""200 + 400 + 200"",""200 + 450 + 200"",""200 + 500 + 200""]","A","B","modiste","","C","30","algLinUCB_0.9","diff-topics","elementary_mathematics","The following are multiple choice questions about high_school_mathematics.
Colton and his dad bought a gallon of paint that cost $13. They also bought 2 brushes that cost $9 each. What was the total cost, not including tax, of the brushes and the paint they bought?
(A) $22, (B) $24, (C) $31, (D) $35
Answer: C
Solve for y. y – 2 + 3y = 10
(A) 2, (B) 3, (C) 4, (D) 5
Answer: B
Solve 3 over 2 * w = 66.
(A) 33, (B) 44, (C) 88, (D) 99
Answer: B
Write 5.875 as a mixed number or fraction in simplest form.
(A) 5 and 8 over 9, (B) 5 and 7 over 8, (C) 7 over 8, (D) 5 and 87 over 105
Answer: B
Solve the equation 124 = m + 34.
(A) 158, (B) 90, (C) 88, (D) 4,216
Answer: B
Zelma buys p pounds of bananas for 40 cents per pound. She pays the clerk with a twenty-dollar bill. The clerk subtracts the total cost of the bananas from the twenty-dollar bill to determine the amount of change to give Zelma. Which expression represents the amount of change Zelma should receive?
(A) p - 20, (B) 20 - 40p, (C) 20 - 0.40p, (D) 0.40p - 20
Answer: C
Please answer the following question with just the correct option (A, B, C, or D) without any explanation or additional text.
Jimmy and Kima are going on a trip. They will drive for three days. The first day they will drive 182 miles. The second day they will drive 439 miles. The third day they will drive 217 miles. Which expression is the closest estimate of how many miles Jimmy and Kima will drive on their trip?
(A) '150 + 400 + 200', (B) '200 + 400 + 200', (C) '200 + 450 + 200', (D) '200 + 500 + 200'
Answer:","","","","","","","","","","","","","","","","","","","","","",""
"survey-html-form","39","514250","0.0-4.0-1.11","8ns15d0qgmh6w8n","5dcca2db88381e92c96b9ac5","67b62c430b9240ccd8986e70","67b6397fd5432c30bf9041f7","0","27260.300000071526","","","{""mcAnswer"":""C""}","","","Jimmy and Kima are going on a trip. They will drive for three days. The first day they will drive 182 miles. The second day they will drive 439 miles. The third day they will drive 217 miles. Which expression is the closest estimate of how many miles Jimmy and Kima will drive on their trip?","[""150 + 400 + 200"",""200 + 400 + 200"",""200 + 450 + 200"",""200 + 500 + 200""]","A","B","modiste","","C","30","algLinUCB_0.9","diff-topics","elementary_mathematics","The following are multiple choice questions about high_school_mathematics.
Colton and his dad bought a gallon of paint that cost $13. They also bought 2 brushes that cost $9 each. What was the total cost, not including tax, of the brushes and the paint they bought?
(A) $22, (B) $24, (C) $31, (D) $35
Answer: C
Solve for y. y – 2 + 3y = 10
(A) 2, (B) 3, (C) 4, (D) 5
Answer: B
Solve 3 over 2 * w = 66.
(A) 33, (B) 44, (C) 88, (D) 99
Answer: B
Write 5.875 as a mixed number or fraction in simplest form.
(A) 5 and 8 over 9, (B) 5 and 7 over 8, (C) 7 over 8, (D) 5 and 87 over 105
Answer: B
Solve the equation 124 = m + 34.
(A) 158, (B) 90, (C) 88, (D) 4,216
Answer: B
Zelma buys p pounds of bananas for 40 cents per pound. She pays the clerk with a twenty-dollar bill. The clerk subtracts the total cost of the bananas from the twenty-dollar bill to determine the amount of change to give Zelma. Which expression represents the amount of change Zelma should receive?
(A) p - 20, (B) 20 - 40p, (C) 20 - 0.40p, (D) 0.40p - 20
Answer: C
Please answer the following question with just the correct option (A, B, C, or D) without any explanation or additional text.
Jimmy and Kima are going on a trip. They will drive for three days. The first day they will drive 182 miles. The second day they will drive 439 miles. The third day they will drive 217 miles. Which expression is the closest estimate of how many miles Jimmy and Kima will drive on their trip?
(A) '150 + 400 + 200', (B) '200 + 400 + 200', (C) '200 + 450 + 200', (D) '200 + 500 + 200'
Answer:","","","","","","","","","","","","","","","","","","","","","",""
"","","","","","","","","","","","","","","","","","","","","","","","","","","","C","","","","","","","","","","","","","","","","","","","","",""
"","","","","","","","","","","","","","","","","","","","","","","","","","","","","false","174","-1","A","true","false","defer","[]","false","0","false","0","{""elementary_mathematics"":[""40/50"",""31/50"",""10/11""],""high_school_mathematics"":[""27/51"",""22/50"",""3/6""],""college_mathematics"":[""22/50"",""29/53"",""2/6""]}","{""elementary_mathematics"":false,""high_school_mathematics"":false,""college_mathematics"":false}","You should attempt this problem by yourself","null","null","null","null","true",""
"image-keyboard-response","40","515752","0.0-4.0-2.11","8ns15d0qgmh6w8n","5dcca2db88381e92c96b9ac5","67b62c430b9240ccd8986e70","67b6397fd5432c30bf9041f7","0","null","","","null","","","Jimmy and Kima are going on a trip. They will drive for three days. The first day they will drive 182 miles. The second day they will drive 439 miles. The third day they will drive 217 miles. Which expression is the closest estimate of how many miles Jimmy and Kima will drive on their trip?","[""150 + 400 + 200"",""200 + 400 + 200"",""200 + 450 + 200"",""200 + 500 + 200""]","A","B","modiste","","C","30","algLinUCB_0.9","diff-topics","elementary_mathematics","The following are multiple choice questions about high_school_mathematics.
Colton and his dad bought a gallon of paint that cost $13. They also bought 2 brushes that cost $9 each. What was the total cost, not including tax, of the brushes and the paint they bought?
(A) $22, (B) $24, (C) $31, (D) $35
Answer: C
Solve for y. y – 2 + 3y = 10
(A) 2, (B) 3, (C) 4, (D) 5
Answer: B
Solve 3 over 2 * w = 66.
(A) 33, (B) 44, (C) 88, (D) 99
Answer: B
Write 5.875 as a mixed number or fraction in simplest form.
(A) 5 and 8 over 9, (B) 5 and 7 over 8, (C) 7 over 8, (D) 5 and 87 over 105
Answer: B
Solve the equation 124 = m + 34.
(A) 158, (B) 90, (C) 88, (D) 4,216
Answer: B
Zelma buys p pounds of bananas for 40 cents per pound. She pays the clerk with a twenty-dollar bill. The clerk subtracts the total cost of the bananas from the twenty-dollar bill to determine the amount of change to give Zelma. Which expression represents the amount of change Zelma should receive?
(A) p - 20, (B) 20 - 40p, (C) 20 - 0.40p, (D) 0.40p - 20
Answer: C
Please answer the following question with just the correct option (A, B, C, or D) without any explanation or additional text.
Jimmy and Kima are going on a trip. They will drive for three days. The first day they will drive 182 miles. The second day they will drive 439 miles. The third day they will drive 217 miles. Which expression is the closest estimate of how many miles Jimmy and Kima will drive on their trip?
(A) '150 + 400 + 200', (B) '200 + 400 + 200', (C) '200 + 450 + 200', (D) '200 + 500 + 200'
Answer:","","","","","","","","","","","","","","","","","","","","","","feedback_imgs/Correct.png"
"call-function","41","515753","0.0-4.0-0.12","8ns15d0qgmh6w8n","5dcca2db88381e92c96b9ac5","67b62c430b9240ccd8986e70","67b6397fd5432c30bf9041f7","0","","","","","","defer","There are 25 suitcases, 5 of which are damaged. Three suitcases are selected at random. What is the probability that exactly 2 are damaged?","[""2/69"",""1/30"",""2/23"",""12/125""]","A","A","modiste","","C","44","algLinUCB_0.9","diff-topics","college_mathematics","The following are multiple choice questions about high_school_mathematics.
Colton and his dad bought a gallon of paint that cost $13. They also bought 2 brushes that cost $9 each. What was the total cost, not including tax, of the brushes and the paint they bought?
(A) $22, (B) $24, (C) $31, (D) $35
Answer: C
Solve for y. y – 2 + 3y = 10
(A) 2, (B) 3, (C) 4, (D) 5
Answer: B
Solve 3 over 2 * w = 66.
(A) 33, (B) 44, (C) 88, (D) 99
Answer: B
Write 5.875 as a mixed number or fraction in simplest form.
(A) 5 and 8 over 9, (B) 5 and 7 over 8, (C) 7 over 8, (D) 5 and 87 over 105
Answer: B
Solve the equation 124 = m + 34.
(A) 158, (B) 90, (C) 88, (D) 4,216
Answer: B
Zelma buys p pounds of bananas for 40 cents per pound. She pays the clerk with a twenty-dollar bill. The clerk subtracts the total cost of the bananas from the twenty-dollar bill to determine the amount of change to give Zelma. Which expression represents the amount of change Zelma should receive?
(A) p - 20, (B) 20 - 40p, (C) 20 - 0.40p, (D) 0.40p - 20
Answer: C
Please answer the following question with just the correct option (A, B, C, or D) without any explanation or additional text.
There are 25 suitcases, 5 of which are damaged. Three suitcases are selected at random. What is the probability that exactly 2 are damaged?
(A) '2/69', (B) '1/30', (C) '2/23', (D) '12/125'
Answer:","","","","","","","","","","","","true","2","","","","","","","","",""
"survey-html-form","42","536206","0.0-4.0-1.12","8ns15d0qgmh6w8n","5dcca2db88381e92c96b9ac5","67b62c430b9240ccd8986e70","67b6397fd5432c30bf9041f7","0","20450.5","","","{""mcAnswer"":""A""}","","","There are 25 suitcases, 5 of which are damaged. Three suitcases are selected at random. What is the probability that exactly 2 are damaged?","[""2/69"",""1/30"",""2/23"",""12/125""]","A","A","modiste","","C","44","algLinUCB_0.9","diff-topics","college_mathematics","The following are multiple choice questions about high_school_mathematics.
Colton and his dad bought a gallon of paint that cost $13. They also bought 2 brushes that cost $9 each. What was the total cost, not including tax, of the brushes and the paint they bought?
(A) $22, (B) $24, (C) $31, (D) $35
Answer: C
Solve for y. y – 2 + 3y = 10
(A) 2, (B) 3, (C) 4, (D) 5
Answer: B
Solve 3 over 2 * w = 66.
(A) 33, (B) 44, (C) 88, (D) 99
Answer: B
Write 5.875 as a mixed number or fraction in simplest form.
(A) 5 and 8 over 9, (B) 5 and 7 over 8, (C) 7 over 8, (D) 5 and 87 over 105
Answer: B
Solve the equation 124 = m + 34.
(A) 158, (B) 90, (C) 88, (D) 4,216
Answer: B
Zelma buys p pounds of bananas for 40 cents per pound. She pays the clerk with a twenty-dollar bill. The clerk subtracts the total cost of the bananas from the twenty-dollar bill to determine the amount of change to give Zelma. Which expression represents the amount of change Zelma should receive?
(A) p - 20, (B) 20 - 40p, (C) 20 - 0.40p, (D) 0.40p - 20
Answer: C
Please answer the following question with just the correct option (A, B, C, or D) without any explanation or additional text.
There are 25 suitcases, 5 of which are damaged. Three suitcases are selected at random. What is the probability that exactly 2 are damaged?
(A) '2/69', (B) '1/30', (C) '2/23', (D) '12/125'
Answer:","","","","","","","","","","","","","","","","","","","","","",""
"","","","","","","","","","","","","","","","","","","","","","","","","","","","A","","","","","","","","","","","","","","","","","","","","",""
"","","","","","","","","","","","","","","","","","","","","","","","","","","","","false","171","-1","A","false","false","defer","[]","false","0","true","2","{""elementary_mathematics"":[""40/50"",""31/50"",""10/11""],""high_school_mathematics"":[""27/51"",""22/50"",""3/6""],""college_mathematics"":[""22/50"",""29/54"",""2/6""]}","{""elementary_mathematics"":false,""high_school_mathematics"":false,""college_mathematics"":false}","You should outsource this problem to the AI agent","false","null","true","null","null",""
"image-keyboard-response","43","537710","0.0-4.0-2.12","8ns15d0qgmh6w8n","5dcca2db88381e92c96b9ac5","67b62c430b9240ccd8986e70","67b6397fd5432c30bf9041f7","0","null","","","null","","","There are 25 suitcases, 5 of which are damaged. Three suitcases are selected at random. What is the probability that exactly 2 are damaged?","[""2/69"",""1/30"",""2/23"",""12/125""]","A","A","modiste","","C","44","algLinUCB_0.9","diff-topics","college_mathematics","The following are multiple choice questions about high_school_mathematics.
Colton and his dad bought a gallon of paint that cost $13. They also bought 2 brushes that cost $9 each. What was the total cost, not including tax, of the brushes and the paint they bought?
(A) $22, (B) $24, (C) $31, (D) $35
Answer: C
Solve for y. y – 2 + 3y = 10
(A) 2, (B) 3, (C) 4, (D) 5
Answer: B
Solve 3 over 2 * w = 66.
(A) 33, (B) 44, (C) 88, (D) 99
Answer: B
Write 5.875 as a mixed number or fraction in simplest form.
(A) 5 and 8 over 9, (B) 5 and 7 over 8, (C) 7 over 8, (D) 5 and 87 over 105
Answer: B
Solve the equation 124 = m + 34.
(A) 158, (B) 90, (C) 88, (D) 4,216
Answer: B
Zelma buys p pounds of bananas for 40 cents per pound. She pays the clerk with a twenty-dollar bill. The clerk subtracts the total cost of the bananas from the twenty-dollar bill to determine the amount of change to give Zelma. Which expression represents the amount of change Zelma should receive?
(A) p - 20, (B) 20 - 40p, (C) 20 - 0.40p, (D) 0.40p - 20
Answer: C
Please answer the following question with just the correct option (A, B, C, or D) without any explanation or additional text.
There are 25 suitcases, 5 of which are damaged. Three suitcases are selected at random. What is the probability that exactly 2 are damaged?
(A) '2/69', (B) '1/30', (C) '2/23', (D) '12/125'
Answer:","","","","","","","","","","","","","","","","","","","","","","feedback_imgs/Incorrect.png"
"call-function","44","537710","0.0-4.0-0.13","8ns15d0qgmh6w8n","5dcca2db88381e92c96b9ac5","67b62c430b9240ccd8986e70","67b6397fd5432c30bf9041f7","0","","","","","","defer","The length of a rectangle is twice its width. Given the length of the diagonal is 5sqrt{5}, find the area of the rectangle.","[""2500"",""2"",""50"",""25""]","D","C","modiste","","C","6","algLinUCB_0.9","diff-topics","high_school_mathematics","The following are multiple choice questions about high_school_mathematics.
Colton and his dad bought a gallon of paint that cost $13. They also bought 2 brushes that cost $9 each. What was the total cost, not including tax, of the brushes and the paint they bought?
(A) $22, (B) $24, (C) $31, (D) $35
Answer: C
Solve for y. y – 2 + 3y = 10
(A) 2, (B) 3, (C) 4, (D) 5
Answer: B
Solve 3 over 2 * w = 66.
(A) 33, (B) 44, (C) 88, (D) 99
Answer: B
Write 5.875 as a mixed number or fraction in simplest form.
(A) 5 and 8 over 9, (B) 5 and 7 over 8, (C) 7 over 8, (D) 5 and 87 over 105
Answer: B
Solve the equation 124 = m + 34.
(A) 158, (B) 90, (C) 88, (D) 4,216
Answer: B
Zelma buys p pounds of bananas for 40 cents per pound. She pays the clerk with a twenty-dollar bill. The clerk subtracts the total cost of the bananas from the twenty-dollar bill to determine the amount of change to give Zelma. Which expression represents the amount of change Zelma should receive?
(A) p - 20, (B) 20 - 40p, (C) 20 - 0.40p, (D) 0.40p - 20
Answer: C
Please answer the following question with just the correct option (A, B, C, or D) without any explanation or additional text.
The length of a rectangle is twice its width. Given the length of the diagonal is 5sqrt{5}, find the area of the rectangle.
(A) '2500', (B) '2', (C) '50', (D) '25'
Answer:","","","","","","","","","","true","2","","","","","","","","","","",""
"survey-html-form","45","558932","0.0-4.0-1.13","8ns15d0qgmh6w8n","5dcca2db88381e92c96b9ac5","67b62c430b9240ccd8986e70","67b6397fd5432c30bf9041f7","0","21218.399999976158","","","{""mcAnswer"":""C""}","","","The length of a rectangle is twice its width. Given the length of the diagonal is 5sqrt{5}, find the area of the rectangle.","[""2500"",""2"",""50"",""25""]","D","C","modiste","","C","6","algLinUCB_0.9","diff-topics","high_school_mathematics","The following are multiple choice questions about high_school_mathematics.
Colton and his dad bought a gallon of paint that cost $13. They also bought 2 brushes that cost $9 each. What was the total cost, not including tax, of the brushes and the paint they bought?
(A) $22, (B) $24, (C) $31, (D) $35
Answer: C
Solve for y. y – 2 + 3y = 10
(A) 2, (B) 3, (C) 4, (D) 5
Answer: B
Solve 3 over 2 * w = 66.
(A) 33, (B) 44, (C) 88, (D) 99
Answer: B
Write 5.875 as a mixed number or fraction in simplest form.
(A) 5 and 8 over 9, (B) 5 and 7 over 8, (C) 7 over 8, (D) 5 and 87 over 105
Answer: B
Solve the equation 124 = m + 34.
(A) 158, (B) 90, (C) 88, (D) 4,216
Answer: B
Zelma buys p pounds of bananas for 40 cents per pound. She pays the clerk with a twenty-dollar bill. The clerk subtracts the total cost of the bananas from the twenty-dollar bill to determine the amount of change to give Zelma. Which expression represents the amount of change Zelma should receive?
(A) p - 20, (B) 20 - 40p, (C) 20 - 0.40p, (D) 0.40p - 20
Answer: C
Please answer the following question with just the correct option (A, B, C, or D) without any explanation or additional text.
The length of a rectangle is twice its width. Given the length of the diagonal is 5sqrt{5}, find the area of the rectangle.
(A) '2500', (B) '2', (C) '50', (D) '25'
Answer:","","","","","","","","","","","","","","","","","","","","","",""
"","","","","","","","","","","","","","","","","","","","","","","","","","","","C","","","","","","","","","","","","","","","","","","","","",""
"","","","","","","","","","","","","","","","","","","","","","","","","","","","","false","174","-1","D","true","false","defer","[]","true","2","false","0","{""elementary_mathematics"":[""40/50"",""31/50"",""10/11""],""high_school_mathematics"":[""28/52"",""22/50"",""3/6""],""college_mathematics"":[""22/50"",""29/54"",""2/6""]}","{""elementary_mathematics"":false,""high_school_mathematics"":false,""college_mathematics"":false}","You should outsource this problem to a human agent","null","false","null","true","null",""
"image-keyboard-response","46","560449","0.0-4.0-2.13","8ns15d0qgmh6w8n","5dcca2db88381e92c96b9ac5","67b62c430b9240ccd8986e70","67b6397fd5432c30bf9041f7","0","null","","","null","","","The length of a rectangle is twice its width. Given the length of the diagonal is 5sqrt{5}, find the area of the rectangle.","[""2500"",""2"",""50"",""25""]","D","C","modiste","","C","6","algLinUCB_0.9","diff-topics","high_school_mathematics","The following are multiple choice questions about high_school_mathematics.
Colton and his dad bought a gallon of paint that cost $13. They also bought 2 brushes that cost $9 each. What was the total cost, not including tax, of the brushes and the paint they bought?
(A) $22, (B) $24, (C) $31, (D) $35
Answer: C
Solve for y. y – 2 + 3y = 10
(A) 2, (B) 3, (C) 4, (D) 5
Answer: B
Solve 3 over 2 * w = 66.
(A) 33, (B) 44, (C) 88, (D) 99
Answer: B
Write 5.875 as a mixed number or fraction in simplest form.
(A) 5 and 8 over 9, (B) 5 and 7 over 8, (C) 7 over 8, (D) 5 and 87 over 105
Answer: B
Solve the equation 124 = m + 34.
(A) 158, (B) 90, (C) 88, (D) 4,216
Answer: B
Zelma buys p pounds of bananas for 40 cents per pound. She pays the clerk with a twenty-dollar bill. The clerk subtracts the total cost of the bananas from the twenty-dollar bill to determine the amount of change to give Zelma. Which expression represents the amount of change Zelma should receive?
(A) p - 20, (B) 20 - 40p, (C) 20 - 0.40p, (D) 0.40p - 20
Answer: C
Please answer the following question with just the correct option (A, B, C, or D) without any explanation or additional text.
The length of a rectangle is twice its width. Given the length of the diagonal is 5sqrt{5}, find the area of the rectangle.
(A) '2500', (B) '2', (C) '50', (D) '25'
Answer:","","","","","","","","","","","","","","","","","","","","","","feedback_imgs/Correct.png"
"call-function","47","560449","0.0-4.0-0.14","8ns15d0qgmh6w8n","5dcca2db88381e92c96b9ac5","67b62c430b9240ccd8986e70","67b6397fd5432c30bf9041f7","0","","","","","","defer","Find the number that makes the statement 48 over 88 = ? over 11 true.","[""6"",""11"",""8"",""5""]","A","A","modiste","","A","33","algLinUCB_0.9","diff-topics","elementary_mathematics","The following are multiple choice questions about high_school_mathematics.
Colton and his dad bought a gallon of paint that cost $13. They also bought 2 brushes that cost $9 each. What was the total cost, not including tax, of the brushes and the paint they bought?
(A) $22, (B) $24, (C) $31, (D) $35
Answer: C
Solve for y. y – 2 + 3y = 10
(A) 2, (B) 3, (C) 4, (D) 5
Answer: B
Solve 3 over 2 * w = 66.
(A) 33, (B) 44, (C) 88, (D) 99
Answer: B
Write 5.875 as a mixed number or fraction in simplest form.
(A) 5 and 8 over 9, (B) 5 and 7 over 8, (C) 7 over 8, (D) 5 and 87 over 105
Answer: B
Solve the equation 124 = m + 34.
(A) 158, (B) 90, (C) 88, (D) 4,216
Answer: B
Zelma buys p pounds of bananas for 40 cents per pound. She pays the clerk with a twenty-dollar bill. The clerk subtracts the total cost of the bananas from the twenty-dollar bill to determine the amount of change to give Zelma. Which expression represents the amount of change Zelma should receive?
(A) p - 20, (B) 20 - 40p, (C) 20 - 0.40p, (D) 0.40p - 20
Answer: C
Please answer the following question with just the correct option (A, B, C, or D) without any explanation or additional text.
Find the number that makes the statement 48 over 88 = ? over 11 true.
(A) '6', (B) '11', (C) '8', (D) '5'
Answer:","","","","","","","","","","","","","","","","","","","","","",""
"survey-html-form","48","595915","0.0-4.0-1.14","8ns15d0qgmh6w8n","5dcca2db88381e92c96b9ac5","67b62c430b9240ccd8986e70","67b6397fd5432c30bf9041f7","0","35463.5","","","{""mcAnswer"":""A""}","","","Find the number that makes the statement 48 over 88 = ? over 11 true.","[""6"",""11"",""8"",""5""]","A","A","modiste","","A","33","algLinUCB_0.9","diff-topics","elementary_mathematics","The following are multiple choice questions about high_school_mathematics.
Colton and his dad bought a gallon of paint that cost $13. They also bought 2 brushes that cost $9 each. What was the total cost, not including tax, of the brushes and the paint they bought?
(A) $22, (B) $24, (C) $31, (D) $35
Answer: C
Solve for y. y – 2 + 3y = 10
(A) 2, (B) 3, (C) 4, (D) 5
Answer: B
Solve 3 over 2 * w = 66.
(A) 33, (B) 44, (C) 88, (D) 99
Answer: B
Write 5.875 as a mixed number or fraction in simplest form.
(A) 5 and 8 over 9, (B) 5 and 7 over 8, (C) 7 over 8, (D) 5 and 87 over 105
Answer: B
Solve the equation 124 = m + 34.
(A) 158, (B) 90, (C) 88, (D) 4,216
Answer: B
Zelma buys p pounds of bananas for 40 cents per pound. She pays the clerk with a twenty-dollar bill. The clerk subtracts the total cost of the bananas from the twenty-dollar bill to determine the amount of change to give Zelma. Which expression represents the amount of change Zelma should receive?
(A) p - 20, (B) 20 - 40p, (C) 20 - 0.40p, (D) 0.40p - 20
Answer: C
Please answer the following question with just the correct option (A, B, C, or D) without any explanation or additional text.
Find the number that makes the statement 48 over 88 = ? over 11 true.
(A) '6', (B) '11', (C) '8', (D) '5'
Answer:","","","","","","","","","","","","","","","","","","","","","",""
"","","","","","","","","","","","","","","","","","","","","","","","","","","","A","","","","","","","","","","","","","","","","","","","","",""
"","","","","","","","","","","","","","","","","","","","","","","","","","","","","false","184","-1","A","true","true","defer","[]","false","0","false","0","{""elementary_mathematics"":[""40/50"",""31/50"",""11/12""],""high_school_mathematics"":[""28/52"",""22/50"",""3/6""],""college_mathematics"":[""22/50"",""29/54"",""2/6""]}","{""elementary_mathematics"":false,""high_school_mathematics"":false,""college_mathematics"":false}","You should attempt this problem by yourself","null","null","null","null","true",""
"image-keyboard-response","49","597423","0.0-4.0-2.14","8ns15d0qgmh6w8n","5dcca2db88381e92c96b9ac5","67b62c430b9240ccd8986e70","67b6397fd5432c30bf9041f7","0","null","","","null","","","Find the number that makes the statement 48 over 88 = ? over 11 true.","[""6"",""11"",""8"",""5""]","A","A","modiste","","A","33","algLinUCB_0.9","diff-topics","elementary_mathematics","The following are multiple choice questions about high_school_mathematics.
Colton and his dad bought a gallon of paint that cost $13. They also bought 2 brushes that cost $9 each. What was the total cost, not including tax, of the brushes and the paint they bought?
(A) $22, (B) $24, (C) $31, (D) $35
Answer: C
Solve for y. y – 2 + 3y = 10
(A) 2, (B) 3, (C) 4, (D) 5
Answer: B
Solve 3 over 2 * w = 66.
(A) 33, (B) 44, (C) 88, (D) 99
Answer: B
Write 5.875 as a mixed number or fraction in simplest form.
(A) 5 and 8 over 9, (B) 5 and 7 over 8, (C) 7 over 8, (D) 5 and 87 over 105
Answer: B
Solve the equation 124 = m + 34.
(A) 158, (B) 90, (C) 88, (D) 4,216
Answer: B
Zelma buys p pounds of bananas for 40 cents per pound. She pays the clerk with a twenty-dollar bill. The clerk subtracts the total cost of the bananas from the twenty-dollar bill to determine the amount of change to give Zelma. Which expression represents the amount of change Zelma should receive?
(A) p - 20, (B) 20 - 40p, (C) 20 - 0.40p, (D) 0.40p - 20
Answer: C
Please answer the following question with just the correct option (A, B, C, or D) without any explanation or additional text.
Find the number that makes the statement 48 over 88 = ? over 11 true.
(A) '6', (B) '11', (C) '8', (D) '5'
Answer:","","","","","","","","","","","","","","","","","","","","","","feedback_imgs/Correct.png"
"call-function","50","597423","0.0-4.0-0.15","8ns15d0qgmh6w8n","5dcca2db88381e92c96b9ac5","67b62c430b9240ccd8986e70","67b6397fd5432c30bf9041f7","0","","","","","","defer","Positive integers x and y have a product of 56 and x < y. Seven times the reciprocal of the smaller integer plus 14 times the reciprocal of the larger integer equals 4. What is the value of x?","[""13"",""14"",""1"",""2""]","D","D","modiste","","D","15","algLinUCB_0.9","diff-topics","high_school_mathematics","The following are multiple choice questions about high_school_mathematics.
Colton and his dad bought a gallon of paint that cost $13. They also bought 2 brushes that cost $9 each. What was the total cost, not including tax, of the brushes and the paint they bought?
(A) $22, (B) $24, (C) $31, (D) $35
Answer: C
Solve for y. y – 2 + 3y = 10
(A) 2, (B) 3, (C) 4, (D) 5
Answer: B
Solve 3 over 2 * w = 66.
(A) 33, (B) 44, (C) 88, (D) 99
Answer: B
Write 5.875 as a mixed number or fraction in simplest form.
(A) 5 and 8 over 9, (B) 5 and 7 over 8, (C) 7 over 8, (D) 5 and 87 over 105
Answer: B
Solve the equation 124 = m + 34.
(A) 158, (B) 90, (C) 88, (D) 4,216
Answer: B
Zelma buys p pounds of bananas for 40 cents per pound. She pays the clerk with a twenty-dollar bill. The clerk subtracts the total cost of the bananas from the twenty-dollar bill to determine the amount of change to give Zelma. Which expression represents the amount of change Zelma should receive?
(A) p - 20, (B) 20 - 40p, (C) 20 - 0.40p, (D) 0.40p - 20
Answer: C
Please answer the following question with just the correct option (A, B, C, or D) without any explanation or additional text.
