"trial_type","trial_index","time_elapsed","internal_node_id","subject","prolific_id","study_id","session_id","condition","rt","url","view_history","response","question_order","value","question","options","llm_answer","population_answer","task","subj_id","label","example_id","variant","main_variant","topic","prompt","0","btn_clicked","score","timeToClick","modelPred","humanCorrect","modelCorrect","interfaceType","modelPredDist","human_support_used","human_support_clicks","llm_support_used","llm_support_clicks","recommendation_lists","incorrect_answers_by_category","recommendation","LLM_outsourcing_overridden","human_outsourcing_overridden","ai_orch_agreement","human_orch_agreement","self_orch_agreement","stimulus"
"pavlovia","0","1208","0.0-0.0","dgt36f2quvomc98","66ea708303a080b84cc628a1","67b62c430b9240ccd8986e70","67b6319d1f9f0ea901ba7e7c","3","","","","","","","","","","","","","","","","","","","","","","","","","","","","","","","","","","","","","","","",""
"external-html","1","69929","0.0-1.0","dgt36f2quvomc98","66ea708303a080b84cc628a1","67b62c430b9240ccd8986e70","67b6319d1f9f0ea901ba7e7c","3","68542.19999998808","consent.html","","","","","","","","","","","","","","","","","","","","","","","","","","","","","","","","","","","","","",""
"instructions","2","3018595","0.0-2.0-0.0","dgt36f2quvomc98","66ea708303a080b84cc628a1","67b62c430b9240ccd8986e70","67b6319d1f9f0ea901ba7e7c","3","2948644.900000006","","[{""page_index"":0,""viewing_time"":2648936.900000006},{""page_index"":1,""viewing_time"":253641},{""page_index"":2,""viewing_time"":5449.800000011921},{""page_index"":3,""viewing_time"":7783.0999999940395},{""page_index"":4,""viewing_time"":2900.0999999940395},{""page_index"":5,""viewing_time"":25450.40000000596},{""page_index"":6,""viewing_time"":1583.5999999940395},{""page_index"":7,""viewing_time"":2899.5999999940395}]","","","","","","","","","","","","","","","","","","","","","","","","","","","","","","","","","","","","",""
"survey-multi-choice","3","3043928","0.0-2.0-1.0","dgt36f2quvomc98","66ea708303a080b84cc628a1","67b62c430b9240ccd8986e70","67b6319d1f9f0ea901ba7e7c","3","25329.20000001788","","","{""Q0"":""The answer to a mutliple choice question."",""Q1"":""Typing in a text box.""}","[0,1]","","","","","","","","","","","","","","","","","","","","","","","","","","","","","","","","","","",""
"instructions","4","3095713","0.0-2.1-0.1","dgt36f2quvomc98","66ea708303a080b84cc628a1","67b62c430b9240ccd8986e70","67b6319d1f9f0ea901ba7e7c","3","51782.80000001192","","[{""page_index"":0,""viewing_time"":10332.800000011921},{""page_index"":1,""viewing_time"":6448.799999982119},{""page_index"":2,""viewing_time"":10650.40000000596},{""page_index"":3,""viewing_time"":16066.59999999404},{""page_index"":4,""viewing_time"":2583.600000023842},{""page_index"":5,""viewing_time"":3463.5999999940395},{""page_index"":6,""viewing_time"":1036.5},{""page_index"":7,""viewing_time"":1200.199999988079}]","","","","","","","","","","","","","","","","","","","","","","","","","","","","","","","","","","","","",""
"survey-multi-choice","5","3098748","0.0-2.1-1.1","dgt36f2quvomc98","66ea708303a080b84cc628a1","67b62c430b9240ccd8986e70","67b6319d1f9f0ea901ba7e7c","3","3032.199999988079","","","{""Q0"":""The answer to a mutliple choice question."",""Q1"":""Clicking on a radio button.""}","[0,1]","","","","","","","","","","","","","","","","","","","","","","","","","","","","","","","","","","",""
"instructions","6","3136780","0.0-3.0","dgt36f2quvomc98","66ea708303a080b84cc628a1","67b62c430b9240ccd8986e70","67b6319d1f9f0ea901ba7e7c","3","38030.40000000596","","[{""page_index"":0,""viewing_time"":38030.09999999404}]","","","","","","","","","","","","","","","","","","","","","","","","","","","","","","","","","","","","",""
"call-function","7","3136782","0.0-4.0-0.0","dgt36f2quvomc98","66ea708303a080b84cc628a1","67b62c430b9240ccd8986e70","67b6319d1f9f0ea901ba7e7c","3","","","","","","defer","There are 31 days in the month of January. Michelle did 45 push-ups each day of the month. She used the expression below to find the number of push-ups she did in January. 31 × 45 How many push-ups did Michelle do in the month of January?","[""125 push-ups"",""279 push-ups"",""1,395 push-ups"",""1,406 push-ups""]","C","C","modiste","","C","202","algLinUCB_0.9","diff-topics","elementary_mathematics","The following are multiple choice questions about high_school_mathematics.
Colton and his dad bought a gallon of paint that cost $13. They also bought 2 brushes that cost $9 each. What was the total cost, not including tax, of the brushes and the paint they bought?
(A) $22, (B) $24, (C) $31, (D) $35
Answer: C
Solve for y. y – 2 + 3y = 10
(A) 2, (B) 3, (C) 4, (D) 5
Answer: B
Solve 3 over 2 * w = 66.
(A) 33, (B) 44, (C) 88, (D) 99
Answer: B
Write 5.875 as a mixed number or fraction in simplest form.
(A) 5 and 8 over 9, (B) 5 and 7 over 8, (C) 7 over 8, (D) 5 and 87 over 105
Answer: B
Solve the equation 124 = m + 34.
(A) 158, (B) 90, (C) 88, (D) 4,216
Answer: B
Zelma buys p pounds of bananas for 40 cents per pound. She pays the clerk with a twenty-dollar bill. The clerk subtracts the total cost of the bananas from the twenty-dollar bill to determine the amount of change to give Zelma. Which expression represents the amount of change Zelma should receive?
(A) p - 20, (B) 20 - 40p, (C) 20 - 0.40p, (D) 0.40p - 20
Answer: C
Please answer the following question with just the correct option (A, B, C, or D) without any explanation or additional text.
There are 31 days in the month of January. Michelle did 45 push-ups each day of the month. She used the expression below to find the number of push-ups she did in January. 31 × 45 How many push-ups did Michelle do in the month of January?
(A) '125 push-ups', (B) '279 push-ups', (C) '1,395 push-ups', (D) '1,406 push-ups'
Answer:","","","","","","","","","","","","","","","","","","","","","",""
"survey-html-form","8","3228150","0.0-4.0-1.0","dgt36f2quvomc98","66ea708303a080b84cc628a1","67b62c430b9240ccd8986e70","67b6319d1f9f0ea901ba7e7c","3","91358.80000001192","","","{""mcAnswer"":""C""}","","","There are 31 days in the month of January. Michelle did 45 push-ups each day of the month. She used the expression below to find the number of push-ups she did in January. 31 × 45 How many push-ups did Michelle do in the month of January?","[""125 push-ups"",""279 push-ups"",""1,395 push-ups"",""1,406 push-ups""]","C","C","modiste","","C","202","algLinUCB_0.9","diff-topics","elementary_mathematics","The following are multiple choice questions about high_school_mathematics.
Colton and his dad bought a gallon of paint that cost $13. They also bought 2 brushes that cost $9 each. What was the total cost, not including tax, of the brushes and the paint they bought?
(A) $22, (B) $24, (C) $31, (D) $35
Answer: C
Solve for y. y – 2 + 3y = 10
(A) 2, (B) 3, (C) 4, (D) 5
Answer: B
Solve 3 over 2 * w = 66.
(A) 33, (B) 44, (C) 88, (D) 99
Answer: B
Write 5.875 as a mixed number or fraction in simplest form.
(A) 5 and 8 over 9, (B) 5 and 7 over 8, (C) 7 over 8, (D) 5 and 87 over 105
Answer: B
Solve the equation 124 = m + 34.
(A) 158, (B) 90, (C) 88, (D) 4,216
Answer: B
Zelma buys p pounds of bananas for 40 cents per pound. She pays the clerk with a twenty-dollar bill. The clerk subtracts the total cost of the bananas from the twenty-dollar bill to determine the amount of change to give Zelma. Which expression represents the amount of change Zelma should receive?
(A) p - 20, (B) 20 - 40p, (C) 20 - 0.40p, (D) 0.40p - 20
Answer: C
Please answer the following question with just the correct option (A, B, C, or D) without any explanation or additional text.
There are 31 days in the month of January. Michelle did 45 push-ups each day of the month. She used the expression below to find the number of push-ups she did in January. 31 × 45 How many push-ups did Michelle do in the month of January?
(A) '125 push-ups', (B) '279 push-ups', (C) '1,395 push-ups', (D) '1,406 push-ups'
Answer:","","","","","","","","","","","","","","","","","","","","","",""
"","","","","","","","","","","","","","","","","","","","","","","","","","","","C","","","","","","","","","","","","","","","","","","","","",""
"","","","","","","","","","","","","","","","","","","","","","","","","","","","","false","110","-1","C","true","true","defer","[]","false","0","false","0","{""elementary_mathematics"":[""40/50"",""31/50"",""5/6""],""high_school_mathematics"":[""27/50"",""22/50"",""3 / 5""],""college_mathematics"":[""22/50"",""26/50"",""2 / 5""]}","{""elementary_mathematics"":false}","You should attempt this problem by yourself","null","null","null","null","true",""
"image-keyboard-response","9","3229655","0.0-4.0-2.0","dgt36f2quvomc98","66ea708303a080b84cc628a1","67b62c430b9240ccd8986e70","67b6319d1f9f0ea901ba7e7c","3","null","","","null","","","There are 31 days in the month of January. Michelle did 45 push-ups each day of the month. She used the expression below to find the number of push-ups she did in January. 31 × 45 How many push-ups did Michelle do in the month of January?","[""125 push-ups"",""279 push-ups"",""1,395 push-ups"",""1,406 push-ups""]","C","C","modiste","","C","202","algLinUCB_0.9","diff-topics","elementary_mathematics","The following are multiple choice questions about high_school_mathematics.
Colton and his dad bought a gallon of paint that cost $13. They also bought 2 brushes that cost $9 each. What was the total cost, not including tax, of the brushes and the paint they bought?
(A) $22, (B) $24, (C) $31, (D) $35
Answer: C
Solve for y. y – 2 + 3y = 10
(A) 2, (B) 3, (C) 4, (D) 5
Answer: B
Solve 3 over 2 * w = 66.
(A) 33, (B) 44, (C) 88, (D) 99
Answer: B
Write 5.875 as a mixed number or fraction in simplest form.
(A) 5 and 8 over 9, (B) 5 and 7 over 8, (C) 7 over 8, (D) 5 and 87 over 105
Answer: B
Solve the equation 124 = m + 34.
(A) 158, (B) 90, (C) 88, (D) 4,216
Answer: B
Zelma buys p pounds of bananas for 40 cents per pound. She pays the clerk with a twenty-dollar bill. The clerk subtracts the total cost of the bananas from the twenty-dollar bill to determine the amount of change to give Zelma. Which expression represents the amount of change Zelma should receive?
(A) p - 20, (B) 20 - 40p, (C) 20 - 0.40p, (D) 0.40p - 20
Answer: C
Please answer the following question with just the correct option (A, B, C, or D) without any explanation or additional text.
There are 31 days in the month of January. Michelle did 45 push-ups each day of the month. She used the expression below to find the number of push-ups she did in January. 31 × 45 How many push-ups did Michelle do in the month of January?
(A) '125 push-ups', (B) '279 push-ups', (C) '1,395 push-ups', (D) '1,406 push-ups'
Answer:","","","","","","","","","","","","","","","","","","","","","","feedback_imgs/Correct.png"
"call-function","10","3229656","0.0-4.0-0.1","dgt36f2quvomc98","66ea708303a080b84cc628a1","67b62c430b9240ccd8986e70","67b6319d1f9f0ea901ba7e7c","3","","","","","","defer","Evaluate −2(x − 3) for x = 2.","[""−4"",""−2"",""10"",""2""]","B","D","modiste","","D","204","algLinUCB_0.9","diff-topics","elementary_mathematics","The following are multiple choice questions about high_school_mathematics.
Colton and his dad bought a gallon of paint that cost $13. They also bought 2 brushes that cost $9 each. What was the total cost, not including tax, of the brushes and the paint they bought?
(A) $22, (B) $24, (C) $31, (D) $35
Answer: C
Solve for y. y – 2 + 3y = 10
(A) 2, (B) 3, (C) 4, (D) 5
Answer: B
Solve 3 over 2 * w = 66.
(A) 33, (B) 44, (C) 88, (D) 99
Answer: B
Write 5.875 as a mixed number or fraction in simplest form.
(A) 5 and 8 over 9, (B) 5 and 7 over 8, (C) 7 over 8, (D) 5 and 87 over 105
Answer: B
Solve the equation 124 = m + 34.
(A) 158, (B) 90, (C) 88, (D) 4,216
Answer: B
Zelma buys p pounds of bananas for 40 cents per pound. She pays the clerk with a twenty-dollar bill. The clerk subtracts the total cost of the bananas from the twenty-dollar bill to determine the amount of change to give Zelma. Which expression represents the amount of change Zelma should receive?
(A) p - 20, (B) 20 - 40p, (C) 20 - 0.40p, (D) 0.40p - 20
Answer: C
Please answer the following question with just the correct option (A, B, C, or D) without any explanation or additional text.
Evaluate −2(x − 3) for x = 2.
(A) '−4', (B) '−2', (C) '10', (D) '2'
Answer:","","","","","","","","","","","","","","","","","","","","","",""
"survey-html-form","11","3299832","0.0-4.0-1.1","dgt36f2quvomc98","66ea708303a080b84cc628a1","67b62c430b9240ccd8986e70","67b6319d1f9f0ea901ba7e7c","3","70165.5","","","{""mcAnswer"":""D""}","","","Evaluate −2(x − 3) for x = 2.","[""−4"",""−2"",""10"",""2""]","B","D","modiste","","D","204","algLinUCB_0.9","diff-topics","elementary_mathematics","The following are multiple choice questions about high_school_mathematics.
Colton and his dad bought a gallon of paint that cost $13. They also bought 2 brushes that cost $9 each. What was the total cost, not including tax, of the brushes and the paint they bought?
(A) $22, (B) $24, (C) $31, (D) $35
Answer: C
Solve for y. y – 2 + 3y = 10
(A) 2, (B) 3, (C) 4, (D) 5
Answer: B
Solve 3 over 2 * w = 66.
(A) 33, (B) 44, (C) 88, (D) 99
Answer: B
Write 5.875 as a mixed number or fraction in simplest form.
(A) 5 and 8 over 9, (B) 5 and 7 over 8, (C) 7 over 8, (D) 5 and 87 over 105
Answer: B
Solve the equation 124 = m + 34.
(A) 158, (B) 90, (C) 88, (D) 4,216
Answer: B
Zelma buys p pounds of bananas for 40 cents per pound. She pays the clerk with a twenty-dollar bill. The clerk subtracts the total cost of the bananas from the twenty-dollar bill to determine the amount of change to give Zelma. Which expression represents the amount of change Zelma should receive?
(A) p - 20, (B) 20 - 40p, (C) 20 - 0.40p, (D) 0.40p - 20
Answer: C
Please answer the following question with just the correct option (A, B, C, or D) without any explanation or additional text.
Evaluate −2(x − 3) for x = 2.
(A) '−4', (B) '−2', (C) '10', (D) '2'
Answer:","","","","","","","","","","","","","","","","","","","","","",""
"","","","","","","","","","","","","","","","","","","","","","","","","","","","D","","","","","","","","","","","","","","","","","","","","",""
"","","","","","","","","","","","","","","","","","","","","","","","","","","","","false","120","-1","B","true","false","defer","[]","false","0","false","0","{""elementary_mathematics"":[""40/50"",""31/50"",""6/7""],""high_school_mathematics"":[""27/50"",""22/50"",""3 / 5""],""college_mathematics"":[""22/50"",""26/50"",""2 / 5""]}","{""elementary_mathematics"":false}","You should attempt this problem by yourself","null","null","null","null","true",""
"image-keyboard-response","12","3301336","0.0-4.0-2.1","dgt36f2quvomc98","66ea708303a080b84cc628a1","67b62c430b9240ccd8986e70","67b6319d1f9f0ea901ba7e7c","3","null","","","null","","","Evaluate −2(x − 3) for x = 2.","[""−4"",""−2"",""10"",""2""]","B","D","modiste","","D","204","algLinUCB_0.9","diff-topics","elementary_mathematics","The following are multiple choice questions about high_school_mathematics.
Colton and his dad bought a gallon of paint that cost $13. They also bought 2 brushes that cost $9 each. What was the total cost, not including tax, of the brushes and the paint they bought?
(A) $22, (B) $24, (C) $31, (D) $35
Answer: C
Solve for y. y – 2 + 3y = 10
(A) 2, (B) 3, (C) 4, (D) 5
Answer: B
Solve 3 over 2 * w = 66.
(A) 33, (B) 44, (C) 88, (D) 99
Answer: B
Write 5.875 as a mixed number or fraction in simplest form.
(A) 5 and 8 over 9, (B) 5 and 7 over 8, (C) 7 over 8, (D) 5 and 87 over 105
Answer: B
Solve the equation 124 = m + 34.
(A) 158, (B) 90, (C) 88, (D) 4,216
Answer: B
Zelma buys p pounds of bananas for 40 cents per pound. She pays the clerk with a twenty-dollar bill. The clerk subtracts the total cost of the bananas from the twenty-dollar bill to determine the amount of change to give Zelma. Which expression represents the amount of change Zelma should receive?
(A) p - 20, (B) 20 - 40p, (C) 20 - 0.40p, (D) 0.40p - 20
Answer: C
Please answer the following question with just the correct option (A, B, C, or D) without any explanation or additional text.
Evaluate −2(x − 3) for x = 2.
(A) '−4', (B) '−2', (C) '10', (D) '2'
Answer:","","","","","","","","","","","","","","","","","","","","","","feedback_imgs/Correct.png"
"call-function","13","3301337","0.0-4.0-0.2","dgt36f2quvomc98","66ea708303a080b84cc628a1","67b62c430b9240ccd8986e70","67b6319d1f9f0ea901ba7e7c","3","","","","","","defer","Find 4 over 7 + 2 over 7.","[""6 over 14"",""8 over 49"",""14 over 28"",""6 over 7""]","D","D","modiste","","D","200","algLinUCB_0.9","diff-topics","elementary_mathematics","The following are multiple choice questions about high_school_mathematics.
Colton and his dad bought a gallon of paint that cost $13. They also bought 2 brushes that cost $9 each. What was the total cost, not including tax, of the brushes and the paint they bought?
(A) $22, (B) $24, (C) $31, (D) $35
Answer: C
Solve for y. y – 2 + 3y = 10
(A) 2, (B) 3, (C) 4, (D) 5
Answer: B
Solve 3 over 2 * w = 66.
(A) 33, (B) 44, (C) 88, (D) 99
Answer: B
Write 5.875 as a mixed number or fraction in simplest form.
(A) 5 and 8 over 9, (B) 5 and 7 over 8, (C) 7 over 8, (D) 5 and 87 over 105
Answer: B
Solve the equation 124 = m + 34.
(A) 158, (B) 90, (C) 88, (D) 4,216
Answer: B
Zelma buys p pounds of bananas for 40 cents per pound. She pays the clerk with a twenty-dollar bill. The clerk subtracts the total cost of the bananas from the twenty-dollar bill to determine the amount of change to give Zelma. Which expression represents the amount of change Zelma should receive?
(A) p - 20, (B) 20 - 40p, (C) 20 - 0.40p, (D) 0.40p - 20
Answer: C
Please answer the following question with just the correct option (A, B, C, or D) without any explanation or additional text.
Find 4 over 7 + 2 over 7.
(A) '6 over 14', (B) '8 over 49', (C) '14 over 28', (D) '6 over 7'
Answer:","","","","","","","","","","","","","","","","","","","","","",""
"survey-html-form","14","3579811","0.0-4.0-1.2","dgt36f2quvomc98","66ea708303a080b84cc628a1","67b62c430b9240ccd8986e70","67b6319d1f9f0ea901ba7e7c","3","278489.90000000596","","","{""mcAnswer"":""D""}","","","Find 4 over 7 + 2 over 7.","[""6 over 14"",""8 over 49"",""14 over 28"",""6 over 7""]","D","D","modiste","","D","200","algLinUCB_0.9","diff-topics","elementary_mathematics","The following are multiple choice questions about high_school_mathematics.
Colton and his dad bought a gallon of paint that cost $13. They also bought 2 brushes that cost $9 each. What was the total cost, not including tax, of the brushes and the paint they bought?
(A) $22, (B) $24, (C) $31, (D) $35
Answer: C
Solve for y. y – 2 + 3y = 10
(A) 2, (B) 3, (C) 4, (D) 5
Answer: B
Solve 3 over 2 * w = 66.
(A) 33, (B) 44, (C) 88, (D) 99
Answer: B
Write 5.875 as a mixed number or fraction in simplest form.
(A) 5 and 8 over 9, (B) 5 and 7 over 8, (C) 7 over 8, (D) 5 and 87 over 105
Answer: B
Solve the equation 124 = m + 34.
(A) 158, (B) 90, (C) 88, (D) 4,216
Answer: B
Zelma buys p pounds of bananas for 40 cents per pound. She pays the clerk with a twenty-dollar bill. The clerk subtracts the total cost of the bananas from the twenty-dollar bill to determine the amount of change to give Zelma. Which expression represents the amount of change Zelma should receive?
(A) p - 20, (B) 20 - 40p, (C) 20 - 0.40p, (D) 0.40p - 20
Answer: C
Please answer the following question with just the correct option (A, B, C, or D) without any explanation or additional text.
Find 4 over 7 + 2 over 7.
(A) '6 over 14', (B) '8 over 49', (C) '14 over 28', (D) '6 over 7'
Answer:","","","","","","","","","","","","","","","","","","","","","",""
"","","","","","","","","","","","","","","","","","","","","","","","","","","","D","","","","","","","","","","","","","","","","","","","","",""
"","","","","","","","","","","","","","","","","","","","","","","","","","","","","false","130","-1","D","true","true","defer","[]","false","0","false","0","{""elementary_mathematics"":[""40/50"",""31/50"",""7/8""],""high_school_mathematics"":[""27/50"",""22/50"",""3 / 5""],""college_mathematics"":[""22/50"",""26/50"",""2 / 5""]}","{""elementary_mathematics"":false}","You should attempt this problem by yourself","null","null","null","null","true",""
"image-keyboard-response","15","3581315","0.0-4.0-2.2","dgt36f2quvomc98","66ea708303a080b84cc628a1","67b62c430b9240ccd8986e70","67b6319d1f9f0ea901ba7e7c","3","null","","","null","","","Find 4 over 7 + 2 over 7.","[""6 over 14"",""8 over 49"",""14 over 28"",""6 over 7""]","D","D","modiste","","D","200","algLinUCB_0.9","diff-topics","elementary_mathematics","The following are multiple choice questions about high_school_mathematics.
Colton and his dad bought a gallon of paint that cost $13. They also bought 2 brushes that cost $9 each. What was the total cost, not including tax, of the brushes and the paint they bought?
(A) $22, (B) $24, (C) $31, (D) $35
Answer: C
Solve for y. y – 2 + 3y = 10
(A) 2, (B) 3, (C) 4, (D) 5
Answer: B
Solve 3 over 2 * w = 66.
(A) 33, (B) 44, (C) 88, (D) 99
Answer: B
Write 5.875 as a mixed number or fraction in simplest form.
(A) 5 and 8 over 9, (B) 5 and 7 over 8, (C) 7 over 8, (D) 5 and 87 over 105
Answer: B
Solve the equation 124 = m + 34.
(A) 158, (B) 90, (C) 88, (D) 4,216
Answer: B
Zelma buys p pounds of bananas for 40 cents per pound. She pays the clerk with a twenty-dollar bill. The clerk subtracts the total cost of the bananas from the twenty-dollar bill to determine the amount of change to give Zelma. Which expression represents the amount of change Zelma should receive?
(A) p - 20, (B) 20 - 40p, (C) 20 - 0.40p, (D) 0.40p - 20
Answer: C
Please answer the following question with just the correct option (A, B, C, or D) without any explanation or additional text.
Find 4 over 7 + 2 over 7.
(A) '6 over 14', (B) '8 over 49', (C) '14 over 28', (D) '6 over 7'
Answer:","","","","","","","","","","","","","","","","","","","","","","feedback_imgs/Correct.png"
"call-function","16","3581315","0.0-4.0-0.3","dgt36f2quvomc98","66ea708303a080b84cc628a1","67b62c430b9240ccd8986e70","67b6319d1f9f0ea901ba7e7c","3","","","","","","defer","The mean of 7 numbers is 15. When an 8th number is added, the mean decreases to 12. What is the 8th number?","[""–12"",""–9"",""0"",""8""]","B","B","modiste","","B","190","algLinUCB_0.9","diff-topics","high_school_mathematics","The following are multiple choice questions about high_school_mathematics.
Colton and his dad bought a gallon of paint that cost $13. They also bought 2 brushes that cost $9 each. What was the total cost, not including tax, of the brushes and the paint they bought?
(A) $22, (B) $24, (C) $31, (D) $35
Answer: C
Solve for y. y – 2 + 3y = 10
(A) 2, (B) 3, (C) 4, (D) 5
Answer: B
Solve 3 over 2 * w = 66.
(A) 33, (B) 44, (C) 88, (D) 99
Answer: B
Write 5.875 as a mixed number or fraction in simplest form.
(A) 5 and 8 over 9, (B) 5 and 7 over 8, (C) 7 over 8, (D) 5 and 87 over 105
Answer: B
Solve the equation 124 = m + 34.
(A) 158, (B) 90, (C) 88, (D) 4,216
Answer: B
Zelma buys p pounds of bananas for 40 cents per pound. She pays the clerk with a twenty-dollar bill. The clerk subtracts the total cost of the bananas from the twenty-dollar bill to determine the amount of change to give Zelma. Which expression represents the amount of change Zelma should receive?
(A) p - 20, (B) 20 - 40p, (C) 20 - 0.40p, (D) 0.40p - 20
Answer: C
Please answer the following question with just the correct option (A, B, C, or D) without any explanation or additional text.
The mean of 7 numbers is 15. When an 8th number is added, the mean decreases to 12. What is the 8th number?
(A) '–12', (B) '–9', (C) '0', (D) '8'
Answer:","","","","","","","","","","","","true","2","","","","","","","","",""
"survey-html-form","17","3679292","0.0-4.0-1.3","dgt36f2quvomc98","66ea708303a080b84cc628a1","67b62c430b9240ccd8986e70","67b6319d1f9f0ea901ba7e7c","3","97967.10000002384","","","{""mcAnswer"":""B""}","","","The mean of 7 numbers is 15. When an 8th number is added, the mean decreases to 12. What is the 8th number?","[""–12"",""–9"",""0"",""8""]","B","B","modiste","","B","190","algLinUCB_0.9","diff-topics","high_school_mathematics","The following are multiple choice questions about high_school_mathematics.
Colton and his dad bought a gallon of paint that cost $13. They also bought 2 brushes that cost $9 each. What was the total cost, not including tax, of the brushes and the paint they bought?
(A) $22, (B) $24, (C) $31, (D) $35
Answer: C
Solve for y. y – 2 + 3y = 10
(A) 2, (B) 3, (C) 4, (D) 5
Answer: B
Solve 3 over 2 * w = 66.
(A) 33, (B) 44, (C) 88, (D) 99
Answer: B
Write 5.875 as a mixed number or fraction in simplest form.
(A) 5 and 8 over 9, (B) 5 and 7 over 8, (C) 7 over 8, (D) 5 and 87 over 105
Answer: B
Solve the equation 124 = m + 34.
(A) 158, (B) 90, (C) 88, (D) 4,216
Answer: B
Zelma buys p pounds of bananas for 40 cents per pound. She pays the clerk with a twenty-dollar bill. The clerk subtracts the total cost of the bananas from the twenty-dollar bill to determine the amount of change to give Zelma. Which expression represents the amount of change Zelma should receive?
(A) p - 20, (B) 20 - 40p, (C) 20 - 0.40p, (D) 0.40p - 20
Answer: C
Please answer the following question with just the correct option (A, B, C, or D) without any explanation or additional text.
The mean of 7 numbers is 15. When an 8th number is added, the mean decreases to 12. What is the 8th number?
(A) '–12', (B) '–9', (C) '0', (D) '8'
Answer:","","","","","","","","","","","","","","","","","","","","","",""
"","","","","","","","","","","","","","","","","","","","","","","","","","","","B","","","","","","","","","","","","","","","","","","","","",""
"","","","","","","","","","","","","","","","","","","","","","","","","","","","","false","137","-1","B","true","true","defer","[]","false","0","true","2","{""elementary_mathematics"":[""40/50"",""31/50"",""7/8""],""high_school_mathematics"":[""27/50"",""23/51"",""3 / 5""],""college_mathematics"":[""22/50"",""26/50"",""2 / 5""]}","{""elementary_mathematics"":false,""high_school_mathematics"":false}","You should attempt this problem by yourself","false","null","null","null","false",""
"image-keyboard-response","18","3680796","0.0-4.0-2.3","dgt36f2quvomc98","66ea708303a080b84cc628a1","67b62c430b9240ccd8986e70","67b6319d1f9f0ea901ba7e7c","3","null","","","null","","","The mean of 7 numbers is 15. When an 8th number is added, the mean decreases to 12. What is the 8th number?","[""–12"",""–9"",""0"",""8""]","B","B","modiste","","B","190","algLinUCB_0.9","diff-topics","high_school_mathematics","The following are multiple choice questions about high_school_mathematics.
Colton and his dad bought a gallon of paint that cost $13. They also bought 2 brushes that cost $9 each. What was the total cost, not including tax, of the brushes and the paint they bought?
(A) $22, (B) $24, (C) $31, (D) $35
Answer: C
Solve for y. y – 2 + 3y = 10
(A) 2, (B) 3, (C) 4, (D) 5
Answer: B
Solve 3 over 2 * w = 66.
(A) 33, (B) 44, (C) 88, (D) 99
Answer: B
Write 5.875 as a mixed number or fraction in simplest form.
(A) 5 and 8 over 9, (B) 5 and 7 over 8, (C) 7 over 8, (D) 5 and 87 over 105
Answer: B
Solve the equation 124 = m + 34.
(A) 158, (B) 90, (C) 88, (D) 4,216
Answer: B
Zelma buys p pounds of bananas for 40 cents per pound. She pays the clerk with a twenty-dollar bill. The clerk subtracts the total cost of the bananas from the twenty-dollar bill to determine the amount of change to give Zelma. Which expression represents the amount of change Zelma should receive?
(A) p - 20, (B) 20 - 40p, (C) 20 - 0.40p, (D) 0.40p - 20
Answer: C
Please answer the following question with just the correct option (A, B, C, or D) without any explanation or additional text.
The mean of 7 numbers is 15. When an 8th number is added, the mean decreases to 12. What is the 8th number?
(A) '–12', (B) '–9', (C) '0', (D) '8'
Answer:","","","","","","","","","","","","","","","","","","","","","","feedback_imgs/Correct.png"
"call-function","19","3680796","0.0-4.0-0.4","dgt36f2quvomc98","66ea708303a080b84cc628a1","67b62c430b9240ccd8986e70","67b6319d1f9f0ea901ba7e7c","3","","","","","","defer","The least common multiple of two integers is 240, and the greatest common divisor is 24. Given that one of the integers is 48, what is the other integer?","[""1"",""120"",""20"",""12""]","B","B","modiste","","B","183","algLinUCB_0.9","diff-topics","high_school_mathematics","The following are multiple choice questions about high_school_mathematics.
Colton and his dad bought a gallon of paint that cost $13. They also bought 2 brushes that cost $9 each. What was the total cost, not including tax, of the brushes and the paint they bought?
(A) $22, (B) $24, (C) $31, (D) $35
Answer: C
Solve for y. y – 2 + 3y = 10
(A) 2, (B) 3, (C) 4, (D) 5
Answer: B
Solve 3 over 2 * w = 66.
(A) 33, (B) 44, (C) 88, (D) 99
Answer: B
Write 5.875 as a mixed number or fraction in simplest form.
(A) 5 and 8 over 9, (B) 5 and 7 over 8, (C) 7 over 8, (D) 5 and 87 over 105
Answer: B
Solve the equation 124 = m + 34.
(A) 158, (B) 90, (C) 88, (D) 4,216
Answer: B
Zelma buys p pounds of bananas for 40 cents per pound. She pays the clerk with a twenty-dollar bill. The clerk subtracts the total cost of the bananas from the twenty-dollar bill to determine the amount of change to give Zelma. Which expression represents the amount of change Zelma should receive?
(A) p - 20, (B) 20 - 40p, (C) 20 - 0.40p, (D) 0.40p - 20
Answer: C
Please answer the following question with just the correct option (A, B, C, or D) without any explanation or additional text.
The least common multiple of two integers is 240, and the greatest common divisor is 24. Given that one of the integers is 48, what is the other integer?
(A) '1', (B) '120', (C) '20', (D) '12'
Answer:","","","","","","","","","","","","","","","","","","","","","",""
"survey-html-form","20","3837863","0.0-4.0-1.4","dgt36f2quvomc98","66ea708303a080b84cc628a1","67b62c430b9240ccd8986e70","67b6319d1f9f0ea901ba7e7c","3","157057.70000001788","","","{""mcAnswer"":""B""}","","","The least common multiple of two integers is 240, and the greatest common divisor is 24. Given that one of the integers is 48, what is the other integer?","[""1"",""120"",""20"",""12""]","B","B","modiste","","B","183","algLinUCB_0.9","diff-topics","high_school_mathematics","The following are multiple choice questions about high_school_mathematics.
Colton and his dad bought a gallon of paint that cost $13. They also bought 2 brushes that cost $9 each. What was the total cost, not including tax, of the brushes and the paint they bought?
(A) $22, (B) $24, (C) $31, (D) $35
Answer: C
Solve for y. y – 2 + 3y = 10
(A) 2, (B) 3, (C) 4, (D) 5
Answer: B
Solve 3 over 2 * w = 66.
(A) 33, (B) 44, (C) 88, (D) 99
Answer: B
Write 5.875 as a mixed number or fraction in simplest form.
(A) 5 and 8 over 9, (B) 5 and 7 over 8, (C) 7 over 8, (D) 5 and 87 over 105
Answer: B
Solve the equation 124 = m + 34.
(A) 158, (B) 90, (C) 88, (D) 4,216
Answer: B
Zelma buys p pounds of bananas for 40 cents per pound. She pays the clerk with a twenty-dollar bill. The clerk subtracts the total cost of the bananas from the twenty-dollar bill to determine the amount of change to give Zelma. Which expression represents the amount of change Zelma should receive?
(A) p - 20, (B) 20 - 40p, (C) 20 - 0.40p, (D) 0.40p - 20
Answer: C
Please answer the following question with just the correct option (A, B, C, or D) without any explanation or additional text.
The least common multiple of two integers is 240, and the greatest common divisor is 24. Given that one of the integers is 48, what is the other integer?
(A) '1', (B) '120', (C) '20', (D) '12'
Answer:","","","","","","","","","","","","","","","","","","","","","",""
"","","","","","","","","","","","","","","","","","","","","","","","","","","","B","","","","","","","","","","","","","","","","","","","","",""
"","","","","","","","","","","","","","","","","","","","","","","","","","","","","false","147","-1","B","true","true","defer","[]","false","0","false","0","{""elementary_mathematics"":[""40/50"",""31/50"",""7/8""],""high_school_mathematics"":[""27/50"",""23/51"",""4/6""],""college_mathematics"":[""22/50"",""26/50"",""2 / 5""]}","{""elementary_mathematics"":false,""high_school_mathematics"":false}","You should attempt this problem by yourself","null","null","null","null","true",""
"image-keyboard-response","21","3839368","0.0-4.0-2.4","dgt36f2quvomc98","66ea708303a080b84cc628a1","67b62c430b9240ccd8986e70","67b6319d1f9f0ea901ba7e7c","3","null","","","null","","","The least common multiple of two integers is 240, and the greatest common divisor is 24. Given that one of the integers is 48, what is the other integer?","[""1"",""120"",""20"",""12""]","B","B","modiste","","B","183","algLinUCB_0.9","diff-topics","high_school_mathematics","The following are multiple choice questions about high_school_mathematics.
Colton and his dad bought a gallon of paint that cost $13. They also bought 2 brushes that cost $9 each. What was the total cost, not including tax, of the brushes and the paint they bought?
(A) $22, (B) $24, (C) $31, (D) $35
Answer: C
Solve for y. y – 2 + 3y = 10
(A) 2, (B) 3, (C) 4, (D) 5
Answer: B
Solve 3 over 2 * w = 66.
(A) 33, (B) 44, (C) 88, (D) 99
Answer: B
Write 5.875 as a mixed number or fraction in simplest form.
(A) 5 and 8 over 9, (B) 5 and 7 over 8, (C) 7 over 8, (D) 5 and 87 over 105
Answer: B
Solve the equation 124 = m + 34.
(A) 158, (B) 90, (C) 88, (D) 4,216
Answer: B
Zelma buys p pounds of bananas for 40 cents per pound. She pays the clerk with a twenty-dollar bill. The clerk subtracts the total cost of the bananas from the twenty-dollar bill to determine the amount of change to give Zelma. Which expression represents the amount of change Zelma should receive?
(A) p - 20, (B) 20 - 40p, (C) 20 - 0.40p, (D) 0.40p - 20
Answer: C
Please answer the following question with just the correct option (A, B, C, or D) without any explanation or additional text.
The least common multiple of two integers is 240, and the greatest common divisor is 24. Given that one of the integers is 48, what is the other integer?
(A) '1', (B) '120', (C) '20', (D) '12'
Answer:","","","","","","","","","","","","","","","","","","","","","","feedback_imgs/Correct.png"
"call-function","22","3839369","0.0-4.0-0.5","dgt36f2quvomc98","66ea708303a080b84cc628a1","67b62c430b9240ccd8986e70","67b6319d1f9f0ea901ba7e7c","3","","","","","","defer","In a game two players take turns tossing a fair coin; the winner is the first one to toss a head. The probability that the player who makes the first toss wins the game is","[""1/4"",""1/3"",""1/2"",""2/3""]","C","C","modiste","","D","223","algLinUCB_0.9","diff-topics","college_mathematics","The following are multiple choice questions about high_school_mathematics.
Colton and his dad bought a gallon of paint that cost $13. They also bought 2 brushes that cost $9 each. What was the total cost, not including tax, of the brushes and the paint they bought?
(A) $22, (B) $24, (C) $31, (D) $35
Answer: C
Solve for y. y – 2 + 3y = 10
(A) 2, (B) 3, (C) 4, (D) 5
Answer: B
Solve 3 over 2 * w = 66.
(A) 33, (B) 44, (C) 88, (D) 99
Answer: B
Write 5.875 as a mixed number or fraction in simplest form.
(A) 5 and 8 over 9, (B) 5 and 7 over 8, (C) 7 over 8, (D) 5 and 87 over 105
Answer: B
Solve the equation 124 = m + 34.
(A) 158, (B) 90, (C) 88, (D) 4,216
Answer: B
Zelma buys p pounds of bananas for 40 cents per pound. She pays the clerk with a twenty-dollar bill. The clerk subtracts the total cost of the bananas from the twenty-dollar bill to determine the amount of change to give Zelma. Which expression represents the amount of change Zelma should receive?
(A) p - 20, (B) 20 - 40p, (C) 20 - 0.40p, (D) 0.40p - 20
Answer: C
Please answer the following question with just the correct option (A, B, C, or D) without any explanation or additional text.
In a game two players take turns tossing a fair coin; the winner is the first one to toss a head. The probability that the player who makes the first toss wins the game is
(A) '1/4', (B) '1/3', (C) '1/2', (D) '2/3'
Answer:","","","","","","","","","","","","","","","","","","","","","",""
"survey-html-form","23","3905161","0.0-4.0-1.5","dgt36f2quvomc98","66ea708303a080b84cc628a1","67b62c430b9240ccd8986e70","67b6319d1f9f0ea901ba7e7c","3","65782.69999998808","","","{""mcAnswer"":""C""}","","","In a game two players take turns tossing a fair coin; the winner is the first one to toss a head. The probability that the player who makes the first toss wins the game is","[""1/4"",""1/3"",""1/2"",""2/3""]","C","C","modiste","","D","223","algLinUCB_0.9","diff-topics","college_mathematics","The following are multiple choice questions about high_school_mathematics.
Colton and his dad bought a gallon of paint that cost $13. They also bought 2 brushes that cost $9 each. What was the total cost, not including tax, of the brushes and the paint they bought?
(A) $22, (B) $24, (C) $31, (D) $35
Answer: C
Solve for y. y – 2 + 3y = 10
(A) 2, (B) 3, (C) 4, (D) 5
Answer: B
Solve 3 over 2 * w = 66.
(A) 33, (B) 44, (C) 88, (D) 99
Answer: B
Write 5.875 as a mixed number or fraction in simplest form.
(A) 5 and 8 over 9, (B) 5 and 7 over 8, (C) 7 over 8, (D) 5 and 87 over 105
Answer: B
Solve the equation 124 = m + 34.
(A) 158, (B) 90, (C) 88, (D) 4,216
Answer: B
Zelma buys p pounds of bananas for 40 cents per pound. She pays the clerk with a twenty-dollar bill. The clerk subtracts the total cost of the bananas from the twenty-dollar bill to determine the amount of change to give Zelma. Which expression represents the amount of change Zelma should receive?
(A) p - 20, (B) 20 - 40p, (C) 20 - 0.40p, (D) 0.40p - 20
Answer: C
Please answer the following question with just the correct option (A, B, C, or D) without any explanation or additional text.
In a game two players take turns tossing a fair coin; the winner is the first one to toss a head. The probability that the player who makes the first toss wins the game is
(A) '1/4', (B) '1/3', (C) '1/2', (D) '2/3'
Answer:","","","","","","","","","","","","","","","","","","","","","",""
"","","","","","","","","","","","","","","","","","","","","","","","","","","","C","","","","","","","","","","","","","","","","","","","","",""
"","","","","","","","","","","","","","","","","","","","","","","","","","","","","false","147","-1","C","false","false","defer","[]","false","0","false","0","{""elementary_mathematics"":[""40/50"",""31/50"",""7/8""],""high_school_mathematics"":[""27/50"",""23/51"",""4/6""],""college_mathematics"":[""22/50"",""26/50"",""2/6""]}","{""elementary_mathematics"":false,""high_school_mathematics"":false,""college_mathematics"":true}","You should outsource this problem to the AI agent","null","null","false","null","null",""
"image-keyboard-response","24","3906664","0.0-4.0-2.5","dgt36f2quvomc98","66ea708303a080b84cc628a1","67b62c430b9240ccd8986e70","67b6319d1f9f0ea901ba7e7c","3","null","","","null","","","In a game two players take turns tossing a fair coin; the winner is the first one to toss a head. The probability that the player who makes the first toss wins the game is","[""1/4"",""1/3"",""1/2"",""2/3""]","C","C","modiste","","D","223","algLinUCB_0.9","diff-topics","college_mathematics","The following are multiple choice questions about high_school_mathematics.
Colton and his dad bought a gallon of paint that cost $13. They also bought 2 brushes that cost $9 each. What was the total cost, not including tax, of the brushes and the paint they bought?
(A) $22, (B) $24, (C) $31, (D) $35
Answer: C
Solve for y. y – 2 + 3y = 10
(A) 2, (B) 3, (C) 4, (D) 5
Answer: B
Solve 3 over 2 * w = 66.
(A) 33, (B) 44, (C) 88, (D) 99
Answer: B
Write 5.875 as a mixed number or fraction in simplest form.
(A) 5 and 8 over 9, (B) 5 and 7 over 8, (C) 7 over 8, (D) 5 and 87 over 105
Answer: B
Solve the equation 124 = m + 34.
(A) 158, (B) 90, (C) 88, (D) 4,216
Answer: B
Zelma buys p pounds of bananas for 40 cents per pound. She pays the clerk with a twenty-dollar bill. The clerk subtracts the total cost of the bananas from the twenty-dollar bill to determine the amount of change to give Zelma. Which expression represents the amount of change Zelma should receive?
(A) p - 20, (B) 20 - 40p, (C) 20 - 0.40p, (D) 0.40p - 20
Answer: C
Please answer the following question with just the correct option (A, B, C, or D) without any explanation or additional text.
In a game two players take turns tossing a fair coin; the winner is the first one to toss a head. The probability that the player who makes the first toss wins the game is
(A) '1/4', (B) '1/3', (C) '1/2', (D) '2/3'
Answer:","","","","","","","","","","","","","","","","","","","","","","feedback_imgs/Incorrect.png"
"call-function","25","3906665","0.0-4.0-0.6","dgt36f2quvomc98","66ea708303a080b84cc628a1","67b62c430b9240ccd8986e70","67b6319d1f9f0ea901ba7e7c","3","","","","","","defer","Statement 1 | If A is connected, the closure of A must be connected. Statement 2 | Every continuous function f : (0, 1) → (0, 1) has a fixed point.","[""True, True"",""True, False"",""False, True"",""False, False""]","C","B","modiste","","B","239","algLinUCB_0.9","diff-topics","college_mathematics","The following are multiple choice questions about high_school_mathematics.
Colton and his dad bought a gallon of paint that cost $13. They also bought 2 brushes that cost $9 each. What was the total cost, not including tax, of the brushes and the paint they bought?
(A) $22, (B) $24, (C) $31, (D) $35
Answer: C
Solve for y. y – 2 + 3y = 10
(A) 2, (B) 3, (C) 4, (D) 5
Answer: B
Solve 3 over 2 * w = 66.
(A) 33, (B) 44, (C) 88, (D) 99
Answer: B
Write 5.875 as a mixed number or fraction in simplest form.
(A) 5 and 8 over 9, (B) 5 and 7 over 8, (C) 7 over 8, (D) 5 and 87 over 105
Answer: B
Solve the equation 124 = m + 34.
(A) 158, (B) 90, (C) 88, (D) 4,216
Answer: B
Zelma buys p pounds of bananas for 40 cents per pound. She pays the clerk with a twenty-dollar bill. The clerk subtracts the total cost of the bananas from the twenty-dollar bill to determine the amount of change to give Zelma. Which expression represents the amount of change Zelma should receive?
(A) p - 20, (B) 20 - 40p, (C) 20 - 0.40p, (D) 0.40p - 20
Answer: C
Please answer the following question with just the correct option (A, B, C, or D) without any explanation or additional text.
Statement 1 | If A is connected, the closure of A must be connected. Statement 2 | Every continuous function f : (0, 1) → (0, 1) has a fixed point.
(A) 'True, True', (B) 'True, False', (C) 'False, True', (D) 'False, False'
Answer:","","","","","","","","","","","","true","2","","","","","","","","",""
"survey-html-form","26","3947861","0.0-4.0-1.6","dgt36f2quvomc98","66ea708303a080b84cc628a1","67b62c430b9240ccd8986e70","67b6319d1f9f0ea901ba7e7c","3","41187.20000001788","","","{""mcAnswer"":""C""}","","","Statement 1 | If A is connected, the closure of A must be connected. Statement 2 | Every continuous function f : (0, 1) → (0, 1) has a fixed point.","[""True, True"",""True, False"",""False, True"",""False, False""]","C","B","modiste","","B","239","algLinUCB_0.9","diff-topics","college_mathematics","The following are multiple choice questions about high_school_mathematics.
Colton and his dad bought a gallon of paint that cost $13. They also bought 2 brushes that cost $9 each. What was the total cost, not including tax, of the brushes and the paint they bought?
(A) $22, (B) $24, (C) $31, (D) $35
Answer: C
Solve for y. y – 2 + 3y = 10
(A) 2, (B) 3, (C) 4, (D) 5
Answer: B
Solve 3 over 2 * w = 66.
(A) 33, (B) 44, (C) 88, (D) 99
Answer: B
Write 5.875 as a mixed number or fraction in simplest form.
(A) 5 and 8 over 9, (B) 5 and 7 over 8, (C) 7 over 8, (D) 5 and 87 over 105
Answer: B
Solve the equation 124 = m + 34.
(A) 158, (B) 90, (C) 88, (D) 4,216
Answer: B
Zelma buys p pounds of bananas for 40 cents per pound. She pays the clerk with a twenty-dollar bill. The clerk subtracts the total cost of the bananas from the twenty-dollar bill to determine the amount of change to give Zelma. Which expression represents the amount of change Zelma should receive?
(A) p - 20, (B) 20 - 40p, (C) 20 - 0.40p, (D) 0.40p - 20
Answer: C
Please answer the following question with just the correct option (A, B, C, or D) without any explanation or additional text.
Statement 1 | If A is connected, the closure of A must be connected. Statement 2 | Every continuous function f : (0, 1) → (0, 1) has a fixed point.
(A) 'True, True', (B) 'True, False', (C) 'False, True', (D) 'False, False'
Answer:","","","","","","","","","","","","","","","","","","","","","",""
"","","","","","","","","","","","","","","","","","","","","","","","","","","","C","","","","","","","","","","","","","","","","","","","","",""
"","","","","","","","","","","","","","","","","","","","","","","","","","","","","false","144","-1","C","false","false","defer","[]","false","0","true","2","{""elementary_mathematics"":[""40/50"",""31/50"",""7/8""],""high_school_mathematics"":[""27/50"",""23/51"",""4/6""],""college_mathematics"":[""22/50"",""26/51"",""2/6""]}","{""elementary_mathematics"":false,""high_school_mathematics"":false,""college_mathematics"":false}","You were wrong by yourself on college_mathematics last time. You should outsource this problem to the AI agent","false","null","true","null","null",""
"image-keyboard-response","27","3949365","0.0-4.0-2.6","dgt36f2quvomc98","66ea708303a080b84cc628a1","67b62c430b9240ccd8986e70","67b6319d1f9f0ea901ba7e7c","3","null","","","null","","","Statement 1 | If A is connected, the closure of A must be connected. Statement 2 | Every continuous function f : (0, 1) → (0, 1) has a fixed point.","[""True, True"",""True, False"",""False, True"",""False, False""]","C","B","modiste","","B","239","algLinUCB_0.9","diff-topics","college_mathematics","The following are multiple choice questions about high_school_mathematics.
Colton and his dad bought a gallon of paint that cost $13. They also bought 2 brushes that cost $9 each. What was the total cost, not including tax, of the brushes and the paint they bought?
(A) $22, (B) $24, (C) $31, (D) $35
Answer: C
Solve for y. y – 2 + 3y = 10
(A) 2, (B) 3, (C) 4, (D) 5
Answer: B
Solve 3 over 2 * w = 66.
(A) 33, (B) 44, (C) 88, (D) 99
Answer: B
Write 5.875 as a mixed number or fraction in simplest form.
(A) 5 and 8 over 9, (B) 5 and 7 over 8, (C) 7 over 8, (D) 5 and 87 over 105
Answer: B
Solve the equation 124 = m + 34.
(A) 158, (B) 90, (C) 88, (D) 4,216
Answer: B
Zelma buys p pounds of bananas for 40 cents per pound. She pays the clerk with a twenty-dollar bill. The clerk subtracts the total cost of the bananas from the twenty-dollar bill to determine the amount of change to give Zelma. Which expression represents the amount of change Zelma should receive?
(A) p - 20, (B) 20 - 40p, (C) 20 - 0.40p, (D) 0.40p - 20
Answer: C
Please answer the following question with just the correct option (A, B, C, or D) without any explanation or additional text.
Statement 1 | If A is connected, the closure of A must be connected. Statement 2 | Every continuous function f : (0, 1) → (0, 1) has a fixed point.
(A) 'True, True', (B) 'True, False', (C) 'False, True', (D) 'False, False'
Answer:","","","","","","","","","","","","","","","","","","","","","","feedback_imgs/Incorrect.png"
"call-function","28","3949366","0.0-4.0-0.7","dgt36f2quvomc98","66ea708303a080b84cc628a1","67b62c430b9240ccd8986e70","67b6319d1f9f0ea901ba7e7c","3","","","","","","defer","The positive square root of 200 is what percent larger than the positive square root of 121? Express your answer to the nearest whole number.","[""29"",""14"",""27"",""11""]","C","A","modiste","","A","197","algLinUCB_0.9","diff-topics","high_school_mathematics","The following are multiple choice questions about high_school_mathematics.
Colton and his dad bought a gallon of paint that cost $13. They also bought 2 brushes that cost $9 each. What was the total cost, not including tax, of the brushes and the paint they bought?
(A) $22, (B) $24, (C) $31, (D) $35
Answer: C
Solve for y. y – 2 + 3y = 10
(A) 2, (B) 3, (C) 4, (D) 5
Answer: B
Solve 3 over 2 * w = 66.
(A) 33, (B) 44, (C) 88, (D) 99
Answer: B
Write 5.875 as a mixed number or fraction in simplest form.
(A) 5 and 8 over 9, (B) 5 and 7 over 8, (C) 7 over 8, (D) 5 and 87 over 105
Answer: B
Solve the equation 124 = m + 34.
(A) 158, (B) 90, (C) 88, (D) 4,216
Answer: B
Zelma buys p pounds of bananas for 40 cents per pound. She pays the clerk with a twenty-dollar bill. The clerk subtracts the total cost of the bananas from the twenty-dollar bill to determine the amount of change to give Zelma. Which expression represents the amount of change Zelma should receive?
(A) p - 20, (B) 20 - 40p, (C) 20 - 0.40p, (D) 0.40p - 20
Answer: C
Please answer the following question with just the correct option (A, B, C, or D) without any explanation or additional text.
The positive square root of 200 is what percent larger than the positive square root of 121? Express your answer to the nearest whole number.
(A) '29', (B) '14', (C) '27', (D) '11'
Answer:","","","","","","","","","","","","true","2","","","","","","","","",""
"survey-html-form","29","3976628","0.0-4.0-1.7","dgt36f2quvomc98","66ea708303a080b84cc628a1","67b62c430b9240ccd8986e70","67b6319d1f9f0ea901ba7e7c","3","27254.30000001192","","","{""mcAnswer"":""C""}","","","The positive square root of 200 is what percent larger than the positive square root of 121? Express your answer to the nearest whole number.","[""29"",""14"",""27"",""11""]","C","A","modiste","","A","197","algLinUCB_0.9","diff-topics","high_school_mathematics","The following are multiple choice questions about high_school_mathematics.
Colton and his dad bought a gallon of paint that cost $13. They also bought 2 brushes that cost $9 each. What was the total cost, not including tax, of the brushes and the paint they bought?
(A) $22, (B) $24, (C) $31, (D) $35
Answer: C
Solve for y. y – 2 + 3y = 10
(A) 2, (B) 3, (C) 4, (D) 5
Answer: B
Solve 3 over 2 * w = 66.
(A) 33, (B) 44, (C) 88, (D) 99
Answer: B
Write 5.875 as a mixed number or fraction in simplest form.
(A) 5 and 8 over 9, (B) 5 and 7 over 8, (C) 7 over 8, (D) 5 and 87 over 105
Answer: B
Solve the equation 124 = m + 34.
(A) 158, (B) 90, (C) 88, (D) 4,216
Answer: B
Zelma buys p pounds of bananas for 40 cents per pound. She pays the clerk with a twenty-dollar bill. The clerk subtracts the total cost of the bananas from the twenty-dollar bill to determine the amount of change to give Zelma. Which expression represents the amount of change Zelma should receive?
(A) p - 20, (B) 20 - 40p, (C) 20 - 0.40p, (D) 0.40p - 20
Answer: C
Please answer the following question with just the correct option (A, B, C, or D) without any explanation or additional text.
The positive square root of 200 is what percent larger than the positive square root of 121? Express your answer to the nearest whole number.
(A) '29', (B) '14', (C) '27', (D) '11'
Answer:","","","","","","","","","","","","","","","","","","","","","",""
"","","","","","","","","","","","","","","","","","","","","","","","","","","","C","","","","","","","","","","","","","","","","","","","","",""
"","","","","","","","","","","","","","","","","","","","","","","","","","","","","false","141","-1","C","false","false","defer","[]","false","0","true","2","{""elementary_mathematics"":[""40/50"",""31/50"",""7/8""],""high_school_mathematics"":[""27/50"",""23/52"",""4/6""],""college_mathematics"":[""22/50"",""26/51"",""2/6""]}","{""elementary_mathematics"":false,""high_school_mathematics"":false,""college_mathematics"":false}","You should attempt this problem by yourself","false","null","null","null","false",""
"image-keyboard-response","30","3978133","0.0-4.0-2.7","dgt36f2quvomc98","66ea708303a080b84cc628a1","67b62c430b9240ccd8986e70","67b6319d1f9f0ea901ba7e7c","3","null","","","null","","","The positive square root of 200 is what percent larger than the positive square root of 121? Express your answer to the nearest whole number.","[""29"",""14"",""27"",""11""]","C","A","modiste","","A","197","algLinUCB_0.9","diff-topics","high_school_mathematics","The following are multiple choice questions about high_school_mathematics.
Colton and his dad bought a gallon of paint that cost $13. They also bought 2 brushes that cost $9 each. What was the total cost, not including tax, of the brushes and the paint they bought?
(A) $22, (B) $24, (C) $31, (D) $35
Answer: C
Solve for y. y – 2 + 3y = 10
(A) 2, (B) 3, (C) 4, (D) 5
Answer: B
Solve 3 over 2 * w = 66.
(A) 33, (B) 44, (C) 88, (D) 99
Answer: B
Write 5.875 as a mixed number or fraction in simplest form.
(A) 5 and 8 over 9, (B) 5 and 7 over 8, (C) 7 over 8, (D) 5 and 87 over 105
Answer: B
Solve the equation 124 = m + 34.
(A) 158, (B) 90, (C) 88, (D) 4,216
Answer: B
Zelma buys p pounds of bananas for 40 cents per pound. She pays the clerk with a twenty-dollar bill. The clerk subtracts the total cost of the bananas from the twenty-dollar bill to determine the amount of change to give Zelma. Which expression represents the amount of change Zelma should receive?
(A) p - 20, (B) 20 - 40p, (C) 20 - 0.40p, (D) 0.40p - 20
Answer: C
Please answer the following question with just the correct option (A, B, C, or D) without any explanation or additional text.
The positive square root of 200 is what percent larger than the positive square root of 121? Express your answer to the nearest whole number.
(A) '29', (B) '14', (C) '27', (D) '11'
Answer:","","","","","","","","","","","","","","","","","","","","","","feedback_imgs/Incorrect.png"
"call-function","31","3978133","0.0-4.0-0.8","dgt36f2quvomc98","66ea708303a080b84cc628a1","67b62c430b9240ccd8986e70","67b6319d1f9f0ea901ba7e7c","3","","","","","","defer","Yesterday, Micah ate an even number of strawberries. He also ate an odd number of apples. Which group could represent the strawberries, S, and apples, A, Micah ate yesterday?","[""SSSSS; AAA"",""SSSSS; AAAA"",""SSSSSSSS; AAAA"",""SSSSSSSS; A""]","C","D","modiste","","D","215","algLinUCB_0.9","diff-topics","elementary_mathematics","The following are multiple choice questions about high_school_mathematics.
Colton and his dad bought a gallon of paint that cost $13. They also bought 2 brushes that cost $9 each. What was the total cost, not including tax, of the brushes and the paint they bought?
(A) $22, (B) $24, (C) $31, (D) $35
Answer: C
Solve for y. y – 2 + 3y = 10
(A) 2, (B) 3, (C) 4, (D) 5
Answer: B
Solve 3 over 2 * w = 66.
(A) 33, (B) 44, (C) 88, (D) 99
Answer: B
Write 5.875 as a mixed number or fraction in simplest form.
(A) 5 and 8 over 9, (B) 5 and 7 over 8, (C) 7 over 8, (D) 5 and 87 over 105
Answer: B
Solve the equation 124 = m + 34.
(A) 158, (B) 90, (C) 88, (D) 4,216
Answer: B
Zelma buys p pounds of bananas for 40 cents per pound. She pays the clerk with a twenty-dollar bill. The clerk subtracts the total cost of the bananas from the twenty-dollar bill to determine the amount of change to give Zelma. Which expression represents the amount of change Zelma should receive?
(A) p - 20, (B) 20 - 40p, (C) 20 - 0.40p, (D) 0.40p - 20
Answer: C
Please answer the following question with just the correct option (A, B, C, or D) without any explanation or additional text.
Yesterday, Micah ate an even number of strawberries. He also ate an odd number of apples. Which group could represent the strawberries, S, and apples, A, Micah ate yesterday?
(A) 'SSSSS; AAA', (B) 'SSSSS; AAAA', (C) 'SSSSSSSS; AAAA', (D) 'SSSSSSSS; A'
Answer:","","","","","","","","","","","","","","","","","","","","","",""
"survey-html-form","32","4037798","0.0-4.0-1.8","dgt36f2quvomc98","66ea708303a080b84cc628a1","67b62c430b9240ccd8986e70","67b6319d1f9f0ea901ba7e7c","3","59656.40000000596","","","{""mcAnswer"":""D""}","","","Yesterday, Micah ate an even number of strawberries. He also ate an odd number of apples. Which group could represent the strawberries, S, and apples, A, Micah ate yesterday?","[""SSSSS; AAA"",""SSSSS; AAAA"",""SSSSSSSS; AAAA"",""SSSSSSSS; A""]","C","D","modiste","","D","215","algLinUCB_0.9","diff-topics","elementary_mathematics","The following are multiple choice questions about high_school_mathematics.
Colton and his dad bought a gallon of paint that cost $13. They also bought 2 brushes that cost $9 each. What was the total cost, not including tax, of the brushes and the paint they bought?
(A) $22, (B) $24, (C) $31, (D) $35
Answer: C
Solve for y. y – 2 + 3y = 10
(A) 2, (B) 3, (C) 4, (D) 5
Answer: B
Solve 3 over 2 * w = 66.
(A) 33, (B) 44, (C) 88, (D) 99
Answer: B
Write 5.875 as a mixed number or fraction in simplest form.
(A) 5 and 8 over 9, (B) 5 and 7 over 8, (C) 7 over 8, (D) 5 and 87 over 105
Answer: B
Solve the equation 124 = m + 34.
(A) 158, (B) 90, (C) 88, (D) 4,216
Answer: B
Zelma buys p pounds of bananas for 40 cents per pound. She pays the clerk with a twenty-dollar bill. The clerk subtracts the total cost of the bananas from the twenty-dollar bill to determine the amount of change to give Zelma. Which expression represents the amount of change Zelma should receive?
(A) p - 20, (B) 20 - 40p, (C) 20 - 0.40p, (D) 0.40p - 20
Answer: C
Please answer the following question with just the correct option (A, B, C, or D) without any explanation or additional text.
Yesterday, Micah ate an even number of strawberries. He also ate an odd number of apples. Which group could represent the strawberries, S, and apples, A, Micah ate yesterday?
(A) 'SSSSS; AAA', (B) 'SSSSS; AAAA', (C) 'SSSSSSSS; AAAA', (D) 'SSSSSSSS; A'
Answer:","","","","","","","","","","","","","","","","","","","","","",""
"","","","","","","","","","","","","","","","","","","","","","","","","","","","D","","","","","","","","","","","","","","","","","","","","",""
"","","","","","","","","","","","","","","","","","","","","","","","","","","","","false","151","-1","C","true","false","defer","[]","false","0","false","0","{""elementary_mathematics"":[""40/50"",""31/50"",""8/9""],""high_school_mathematics"":[""27/50"",""23/52"",""4/6""],""college_mathematics"":[""22/50"",""26/51"",""2/6""]}","{""elementary_mathematics"":false,""high_school_mathematics"":false,""college_mathematics"":false}","You should attempt this problem by yourself","null","null","null","null","true",""
"image-keyboard-response","33","4039303","0.0-4.0-2.8","dgt36f2quvomc98","66ea708303a080b84cc628a1","67b62c430b9240ccd8986e70","67b6319d1f9f0ea901ba7e7c","3","null","","","null","","","Yesterday, Micah ate an even number of strawberries. He also ate an odd number of apples. Which group could represent the strawberries, S, and apples, A, Micah ate yesterday?","[""SSSSS; AAA"",""SSSSS; AAAA"",""SSSSSSSS; AAAA"",""SSSSSSSS; A""]","C","D","modiste","","D","215","algLinUCB_0.9","diff-topics","elementary_mathematics","The following are multiple choice questions about high_school_mathematics.
Colton and his dad bought a gallon of paint that cost $13. They also bought 2 brushes that cost $9 each. What was the total cost, not including tax, of the brushes and the paint they bought?
(A) $22, (B) $24, (C) $31, (D) $35
Answer: C
Solve for y. y – 2 + 3y = 10
(A) 2, (B) 3, (C) 4, (D) 5
Answer: B
Solve 3 over 2 * w = 66.
(A) 33, (B) 44, (C) 88, (D) 99
Answer: B
Write 5.875 as a mixed number or fraction in simplest form.
(A) 5 and 8 over 9, (B) 5 and 7 over 8, (C) 7 over 8, (D) 5 and 87 over 105
Answer: B
Solve the equation 124 = m + 34.
(A) 158, (B) 90, (C) 88, (D) 4,216
Answer: B
Zelma buys p pounds of bananas for 40 cents per pound. She pays the clerk with a twenty-dollar bill. The clerk subtracts the total cost of the bananas from the twenty-dollar bill to determine the amount of change to give Zelma. Which expression represents the amount of change Zelma should receive?
(A) p - 20, (B) 20 - 40p, (C) 20 - 0.40p, (D) 0.40p - 20
Answer: C
Please answer the following question with just the correct option (A, B, C, or D) without any explanation or additional text.
Yesterday, Micah ate an even number of strawberries. He also ate an odd number of apples. Which group could represent the strawberries, S, and apples, A, Micah ate yesterday?
(A) 'SSSSS; AAA', (B) 'SSSSS; AAAA', (C) 'SSSSSSSS; AAAA', (D) 'SSSSSSSS; A'
Answer:","","","","","","","","","","","","","","","","","","","","","","feedback_imgs/Correct.png"
"call-function","34","4039304","0.0-4.0-0.9","dgt36f2quvomc98","66ea708303a080b84cc628a1","67b62c430b9240ccd8986e70","67b6319d1f9f0ea901ba7e7c","3","","","","","","defer","Suppose that f(x) is a polynomial that has degree 6 and g(x) is a polynomial that has degree 3. If h(x) is also a polynomial such that f(g(x)) + g(h(x)) + h(f(x)) is a polynomial of degree 36, then what is the degree of the polynomial h?","[""72"",""6"",""18"",""12""]","C","D","modiste","","B","192","algLinUCB_0.9","diff-topics","high_school_mathematics","The following are multiple choice questions about high_school_mathematics.
Colton and his dad bought a gallon of paint that cost $13. They also bought 2 brushes that cost $9 each. What was the total cost, not including tax, of the brushes and the paint they bought?
(A) $22, (B) $24, (C) $31, (D) $35
Answer: C
Solve for y. y – 2 + 3y = 10
(A) 2, (B) 3, (C) 4, (D) 5
Answer: B
Solve 3 over 2 * w = 66.
(A) 33, (B) 44, (C) 88, (D) 99
Answer: B
Write 5.875 as a mixed number or fraction in simplest form.
(A) 5 and 8 over 9, (B) 5 and 7 over 8, (C) 7 over 8, (D) 5 and 87 over 105
Answer: B
Solve the equation 124 = m + 34.
(A) 158, (B) 90, (C) 88, (D) 4,216
Answer: B
Zelma buys p pounds of bananas for 40 cents per pound. She pays the clerk with a twenty-dollar bill. The clerk subtracts the total cost of the bananas from the twenty-dollar bill to determine the amount of change to give Zelma. Which expression represents the amount of change Zelma should receive?
(A) p - 20, (B) 20 - 40p, (C) 20 - 0.40p, (D) 0.40p - 20
Answer: C
Please answer the following question with just the correct option (A, B, C, or D) without any explanation or additional text.
Suppose that f(x) is a polynomial that has degree 6 and g(x) is a polynomial that has degree 3. If h(x) is also a polynomial such that f(g(x)) + g(h(x)) + h(f(x)) is a polynomial of degree 36, then what is the degree of the polynomial h?
(A) '72', (B) '6', (C) '18', (D) '12'
Answer:","","","","","","","","","","true","2","","","","","","","","","","",""
"survey-html-form","35","4368168","0.0-4.0-1.9","dgt36f2quvomc98","66ea708303a080b84cc628a1","67b62c430b9240ccd8986e70","67b6319d1f9f0ea901ba7e7c","3","328853.1999999881","","","{""mcAnswer"":""D""}","","","Suppose that f(x) is a polynomial that has degree 6 and g(x) is a polynomial that has degree 3. If h(x) is also a polynomial such that f(g(x)) + g(h(x)) + h(f(x)) is a polynomial of degree 36, then what is the degree of the polynomial h?","[""72"",""6"",""18"",""12""]","C","D","modiste","","B","192","algLinUCB_0.9","diff-topics","high_school_mathematics","The following are multiple choice questions about high_school_mathematics.
Colton and his dad bought a gallon of paint that cost $13. They also bought 2 brushes that cost $9 each. What was the total cost, not including tax, of the brushes and the paint they bought?
(A) $22, (B) $24, (C) $31, (D) $35
Answer: C
Solve for y. y – 2 + 3y = 10
(A) 2, (B) 3, (C) 4, (D) 5
Answer: B
Solve 3 over 2 * w = 66.
(A) 33, (B) 44, (C) 88, (D) 99
Answer: B
Write 5.875 as a mixed number or fraction in simplest form.
(A) 5 and 8 over 9, (B) 5 and 7 over 8, (C) 7 over 8, (D) 5 and 87 over 105
Answer: B
Solve the equation 124 = m + 34.
(A) 158, (B) 90, (C) 88, (D) 4,216
Answer: B
Zelma buys p pounds of bananas for 40 cents per pound. She pays the clerk with a twenty-dollar bill. The clerk subtracts the total cost of the bananas from the twenty-dollar bill to determine the amount of change to give Zelma. Which expression represents the amount of change Zelma should receive?
(A) p - 20, (B) 20 - 40p, (C) 20 - 0.40p, (D) 0.40p - 20
Answer: C
Please answer the following question with just the correct option (A, B, C, or D) without any explanation or additional text.
Suppose that f(x) is a polynomial that has degree 6 and g(x) is a polynomial that has degree 3. If h(x) is also a polynomial such that f(g(x)) + g(h(x)) + h(f(x)) is a polynomial of degree 36, then what is the degree of the polynomial h?
(A) '72', (B) '6', (C) '18', (D) '12'
Answer:","","","","","","","","","","","","","","","","","","","","","",""
"","","","","","","","","","","","","","","","","","","","","","","","","","","","D","","","","","","","","","","","","","","","","","","","","",""
"","","","","","","","","","","","","","","","","","","","","","","","","","","","","false","144","-1","C","false","false","defer","[]","true","2","false","0","{""elementary_mathematics"":[""40/50"",""31/50"",""8/9""],""high_school_mathematics"":[""27/51"",""23/52"",""4/6""],""college_mathematics"":[""22/50"",""26/51"",""2/6""]}","{""elementary_mathematics"":false,""high_school_mathematics"":false,""college_mathematics"":false}","You should attempt this problem by yourself","null","false","null","null","false",""
"image-keyboard-response","36","4369672","0.0-4.0-2.9","dgt36f2quvomc98","66ea708303a080b84cc628a1","67b62c430b9240ccd8986e70","67b6319d1f9f0ea901ba7e7c","3","null","","","null","","","Suppose that f(x) is a polynomial that has degree 6 and g(x) is a polynomial that has degree 3. If h(x) is also a polynomial such that f(g(x)) + g(h(x)) + h(f(x)) is a polynomial of degree 36, then what is the degree of the polynomial h?","[""72"",""6"",""18"",""12""]","C","D","modiste","","B","192","algLinUCB_0.9","diff-topics","high_school_mathematics","The following are multiple choice questions about high_school_mathematics.
Colton and his dad bought a gallon of paint that cost $13. They also bought 2 brushes that cost $9 each. What was the total cost, not including tax, of the brushes and the paint they bought?
(A) $22, (B) $24, (C) $31, (D) $35
Answer: C
Solve for y. y – 2 + 3y = 10
(A) 2, (B) 3, (C) 4, (D) 5
Answer: B
Solve 3 over 2 * w = 66.
(A) 33, (B) 44, (C) 88, (D) 99
Answer: B
Write 5.875 as a mixed number or fraction in simplest form.
(A) 5 and 8 over 9, (B) 5 and 7 over 8, (C) 7 over 8, (D) 5 and 87 over 105
Answer: B
Solve the equation 124 = m + 34.
(A) 158, (B) 90, (C) 88, (D) 4,216
Answer: B
Zelma buys p pounds of bananas for 40 cents per pound. She pays the clerk with a twenty-dollar bill. The clerk subtracts the total cost of the bananas from the twenty-dollar bill to determine the amount of change to give Zelma. Which expression represents the amount of change Zelma should receive?
(A) p - 20, (B) 20 - 40p, (C) 20 - 0.40p, (D) 0.40p - 20
Answer: C
Please answer the following question with just the correct option (A, B, C, or D) without any explanation or additional text.
Suppose that f(x) is a polynomial that has degree 6 and g(x) is a polynomial that has degree 3. If h(x) is also a polynomial such that f(g(x)) + g(h(x)) + h(f(x)) is a polynomial of degree 36, then what is the degree of the polynomial h?
(A) '72', (B) '6', (C) '18', (D) '12'
Answer:","","","","","","","","","","","","","","","","","","","","","","feedback_imgs/Incorrect.png"
"call-function","37","4369673","0.0-4.0-0.10","dgt36f2quvomc98","66ea708303a080b84cc628a1","67b62c430b9240ccd8986e70","67b6319d1f9f0ea901ba7e7c","3","","","","","","defer","Write 7 over 33 as a decimal.","[""0.021 repeating"",""0.21 Repeating"",""0.22 Repeating"",""0.2121""]","A","B","modiste","","B","212","algLinUCB_0.9","diff-topics","elementary_mathematics","The following are multiple choice questions about high_school_mathematics.
Colton and his dad bought a gallon of paint that cost $13. They also bought 2 brushes that cost $9 each. What was the total cost, not including tax, of the brushes and the paint they bought?
(A) $22, (B) $24, (C) $31, (D) $35
Answer: C
Solve for y. y – 2 + 3y = 10
(A) 2, (B) 3, (C) 4, (D) 5
Answer: B
Solve 3 over 2 * w = 66.
(A) 33, (B) 44, (C) 88, (D) 99
Answer: B
Write 5.875 as a mixed number or fraction in simplest form.
(A) 5 and 8 over 9, (B) 5 and 7 over 8, (C) 7 over 8, (D) 5 and 87 over 105
Answer: B
Solve the equation 124 = m + 34.
(A) 158, (B) 90, (C) 88, (D) 4,216
Answer: B
Zelma buys p pounds of bananas for 40 cents per pound. She pays the clerk with a twenty-dollar bill. The clerk subtracts the total cost of the bananas from the twenty-dollar bill to determine the amount of change to give Zelma. Which expression represents the amount of change Zelma should receive?
(A) p - 20, (B) 20 - 40p, (C) 20 - 0.40p, (D) 0.40p - 20
Answer: C
Please answer the following question with just the correct option (A, B, C, or D) without any explanation or additional text.
Write 7 over 33 as a decimal.
(A) '0.021 repeating', (B) '0.21 Repeating', (C) '0.22 Repeating', (D) '0.2121'
Answer:","","","","","","","","","","","","","","","","","","","","","",""
"survey-html-form","38","4417968","0.0-4.0-1.10","dgt36f2quvomc98","66ea708303a080b84cc628a1","67b62c430b9240ccd8986e70","67b6319d1f9f0ea901ba7e7c","3","48286.80000001192","","","{""mcAnswer"":""B""}","","","Write 7 over 33 as a decimal.","[""0.021 repeating"",""0.21 Repeating"",""0.22 Repeating"",""0.2121""]","A","B","modiste","","B","212","algLinUCB_0.9","diff-topics","elementary_mathematics","The following are multiple choice questions about high_school_mathematics.
Colton and his dad bought a gallon of paint that cost $13. They also bought 2 brushes that cost $9 each. What was the total cost, not including tax, of the brushes and the paint they bought?
(A) $22, (B) $24, (C) $31, (D) $35
Answer: C
Solve for y. y – 2 + 3y = 10
(A) 2, (B) 3, (C) 4, (D) 5
Answer: B
Solve 3 over 2 * w = 66.
(A) 33, (B) 44, (C) 88, (D) 99
Answer: B
Write 5.875 as a mixed number or fraction in simplest form.
(A) 5 and 8 over 9, (B) 5 and 7 over 8, (C) 7 over 8, (D) 5 and 87 over 105
Answer: B
Solve the equation 124 = m + 34.
(A) 158, (B) 90, (C) 88, (D) 4,216
Answer: B
Zelma buys p pounds of bananas for 40 cents per pound. She pays the clerk with a twenty-dollar bill. The clerk subtracts the total cost of the bananas from the twenty-dollar bill to determine the amount of change to give Zelma. Which expression represents the amount of change Zelma should receive?
(A) p - 20, (B) 20 - 40p, (C) 20 - 0.40p, (D) 0.40p - 20
Answer: C
Please answer the following question with just the correct option (A, B, C, or D) without any explanation or additional text.
Write 7 over 33 as a decimal.
(A) '0.021 repeating', (B) '0.21 Repeating', (C) '0.22 Repeating', (D) '0.2121'
Answer:","","","","","","","","","","","","","","","","","","","","","",""
"","","","","","","","","","","","","","","","","","","","","","","","","","","","B","","","","","","","","","","","","","","","","","","","","",""
"","","","","","","","","","","","","","","","","","","","","","","","","","","","","false","154","-1","A","true","false","defer","[]","false","0","false","0","{""elementary_mathematics"":[""40/50"",""31/50"",""9/10""],""high_school_mathematics"":[""27/51"",""23/52"",""4/6""],""college_mathematics"":[""22/50"",""26/51"",""2/6""]}","{""elementary_mathematics"":false,""high_school_mathematics"":false,""college_mathematics"":false}","You should attempt this problem by yourself","null","null","null","null","true",""
"image-keyboard-response","39","4419472","0.0-4.0-2.10","dgt36f2quvomc98","66ea708303a080b84cc628a1","67b62c430b9240ccd8986e70","67b6319d1f9f0ea901ba7e7c","3","null","","","null","","","Write 7 over 33 as a decimal.","[""0.021 repeating"",""0.21 Repeating"",""0.22 Repeating"",""0.2121""]","A","B","modiste","","B","212","algLinUCB_0.9","diff-topics","elementary_mathematics","The following are multiple choice questions about high_school_mathematics.
Colton and his dad bought a gallon of paint that cost $13. They also bought 2 brushes that cost $9 each. What was the total cost, not including tax, of the brushes and the paint they bought?
(A) $22, (B) $24, (C) $31, (D) $35
Answer: C
Solve for y. y – 2 + 3y = 10
(A) 2, (B) 3, (C) 4, (D) 5
Answer: B
Solve 3 over 2 * w = 66.
(A) 33, (B) 44, (C) 88, (D) 99
Answer: B
Write 5.875 as a mixed number or fraction in simplest form.
(A) 5 and 8 over 9, (B) 5 and 7 over 8, (C) 7 over 8, (D) 5 and 87 over 105
Answer: B
Solve the equation 124 = m + 34.
(A) 158, (B) 90, (C) 88, (D) 4,216
Answer: B
Zelma buys p pounds of bananas for 40 cents per pound. She pays the clerk with a twenty-dollar bill. The clerk subtracts the total cost of the bananas from the twenty-dollar bill to determine the amount of change to give Zelma. Which expression represents the amount of change Zelma should receive?
(A) p - 20, (B) 20 - 40p, (C) 20 - 0.40p, (D) 0.40p - 20
Answer: C
Please answer the following question with just the correct option (A, B, C, or D) without any explanation or additional text.
Write 7 over 33 as a decimal.
(A) '0.021 repeating', (B) '0.21 Repeating', (C) '0.22 Repeating', (D) '0.2121'
Answer:","","","","","","","","","","","","","","","","","","","","","","feedback_imgs/Correct.png"
"call-function","40","4419472","0.0-4.0-0.11","dgt36f2quvomc98","66ea708303a080b84cc628a1","67b62c430b9240ccd8986e70","67b6319d1f9f0ea901ba7e7c","3","","","","","","defer","Write the prime factorization of 77. Use exponents where possible.","[""7 • 11^2 • 13"",""7^2 • 11"",""7 • 11 • 13"",""7 • 11""]","D","D","modiste","","D","209","algLinUCB_0.9","diff-topics","elementary_mathematics","The following are multiple choice questions about high_school_mathematics.
Colton and his dad bought a gallon of paint that cost $13. They also bought 2 brushes that cost $9 each. What was the total cost, not including tax, of the brushes and the paint they bought?
(A) $22, (B) $24, (C) $31, (D) $35
Answer: C
Solve for y. y – 2 + 3y = 10
(A) 2, (B) 3, (C) 4, (D) 5
Answer: B
Solve 3 over 2 * w = 66.
(A) 33, (B) 44, (C) 88, (D) 99
Answer: B
Write 5.875 as a mixed number or fraction in simplest form.
(A) 5 and 8 over 9, (B) 5 and 7 over 8, (C) 7 over 8, (D) 5 and 87 over 105
Answer: B
Solve the equation 124 = m + 34.
(A) 158, (B) 90, (C) 88, (D) 4,216
Answer: B
Zelma buys p pounds of bananas for 40 cents per pound. She pays the clerk with a twenty-dollar bill. The clerk subtracts the total cost of the bananas from the twenty-dollar bill to determine the amount of change to give Zelma. Which expression represents the amount of change Zelma should receive?
(A) p - 20, (B) 20 - 40p, (C) 20 - 0.40p, (D) 0.40p - 20
Answer: C
Please answer the following question with just the correct option (A, B, C, or D) without any explanation or additional text.
Write the prime factorization of 77. Use exponents where possible.
(A) '7 • 11^2 • 13', (B) '7^2 • 11', (C) '7 • 11 • 13', (D) '7 • 11'
Answer:","","","","","","","","","","true","2","","","","","","","","","","",""
"survey-html-form","41","4484801","0.0-4.0-1.11","dgt36f2quvomc98","66ea708303a080b84cc628a1","67b62c430b9240ccd8986e70","67b6319d1f9f0ea901ba7e7c","3","65319.80000001192","","","{""mcAnswer"":""D""}","","","Write the prime factorization of 77. Use exponents where possible.","[""7 • 11^2 • 13"",""7^2 • 11"",""7 • 11 • 13"",""7 • 11""]","D","D","modiste","","D","209","algLinUCB_0.9","diff-topics","elementary_mathematics","The following are multiple choice questions about high_school_mathematics.
Colton and his dad bought a gallon of paint that cost $13. They also bought 2 brushes that cost $9 each. What was the total cost, not including tax, of the brushes and the paint they bought?
(A) $22, (B) $24, (C) $31, (D) $35
Answer: C
Solve for y. y – 2 + 3y = 10
(A) 2, (B) 3, (C) 4, (D) 5
Answer: B
Solve 3 over 2 * w = 66.
(A) 33, (B) 44, (C) 88, (D) 99
Answer: B
Write 5.875 as a mixed number or fraction in simplest form.
(A) 5 and 8 over 9, (B) 5 and 7 over 8, (C) 7 over 8, (D) 5 and 87 over 105
Answer: B
Solve the equation 124 = m + 34.
(A) 158, (B) 90, (C) 88, (D) 4,216
Answer: B
Zelma buys p pounds of bananas for 40 cents per pound. She pays the clerk with a twenty-dollar bill. The clerk subtracts the total cost of the bananas from the twenty-dollar bill to determine the amount of change to give Zelma. Which expression represents the amount of change Zelma should receive?
(A) p - 20, (B) 20 - 40p, (C) 20 - 0.40p, (D) 0.40p - 20
Answer: C
Please answer the following question with just the correct option (A, B, C, or D) without any explanation or additional text.
Write the prime factorization of 77. Use exponents where possible.
(A) '7 • 11^2 • 13', (B) '7^2 • 11', (C) '7 • 11 • 13', (D) '7 • 11'
Answer:","","","","","","","","","","","","","","","","","","","","","",""
"","","","","","","","","","","","","","","","","","","","","","","","","","","","D","","","","","","","","","","","","","","","","","","","","",""
"","","","","","","","","","","","","","","","","","","","","","","","","","","","","false","157","-1","D","true","true","defer","[]","true","2","false","0","{""elementary_mathematics"":[""41/51"",""31/50"",""9/10""],""high_school_mathematics"":[""27/51"",""23/52"",""4/6""],""college_mathematics"":[""22/50"",""26/51"",""2/6""]}","{""elementary_mathematics"":false,""high_school_mathematics"":false,""college_mathematics"":false}","You should attempt this problem by yourself","null","false","null","null","false",""
"image-keyboard-response","42","4486305","0.0-4.0-2.11","dgt36f2quvomc98","66ea708303a080b84cc628a1","67b62c430b9240ccd8986e70","67b6319d1f9f0ea901ba7e7c","3","null","","","null","","","Write the prime factorization of 77. Use exponents where possible.","[""7 • 11^2 • 13"",""7^2 • 11"",""7 • 11 • 13"",""7 • 11""]","D","D","modiste","","D","209","algLinUCB_0.9","diff-topics","elementary_mathematics","The following are multiple choice questions about high_school_mathematics.
Colton and his dad bought a gallon of paint that cost $13. They also bought 2 brushes that cost $9 each. What was the total cost, not including tax, of the brushes and the paint they bought?
(A) $22, (B) $24, (C) $31, (D) $35
Answer: C
Solve for y. y – 2 + 3y = 10
(A) 2, (B) 3, (C) 4, (D) 5
Answer: B
Solve 3 over 2 * w = 66.
(A) 33, (B) 44, (C) 88, (D) 99
Answer: B
Write 5.875 as a mixed number or fraction in simplest form.
(A) 5 and 8 over 9, (B) 5 and 7 over 8, (C) 7 over 8, (D) 5 and 87 over 105
Answer: B
Solve the equation 124 = m + 34.
(A) 158, (B) 90, (C) 88, (D) 4,216
Answer: B
Zelma buys p pounds of bananas for 40 cents per pound. She pays the clerk with a twenty-dollar bill. The clerk subtracts the total cost of the bananas from the twenty-dollar bill to determine the amount of change to give Zelma. Which expression represents the amount of change Zelma should receive?
(A) p - 20, (B) 20 - 40p, (C) 20 - 0.40p, (D) 0.40p - 20
Answer: C
Please answer the following question with just the correct option (A, B, C, or D) without any explanation or additional text.
Write the prime factorization of 77. Use exponents where possible.
(A) '7 • 11^2 • 13', (B) '7^2 • 11', (C) '7 • 11 • 13', (D) '7 • 11'
Answer:","","","","","","","","","","","","","","","","","","","","","","feedback_imgs/Correct.png"
"call-function","43","4486306","0.0-4.0-0.12","dgt36f2quvomc98","66ea708303a080b84cc628a1","67b62c430b9240ccd8986e70","67b6319d1f9f0ea901ba7e7c","3","","","","","","defer","In the equation |x-4| -10 = 2, what is the product of all possible values of x?","[""-8"",""128"",""-128"",""16""]","B","C","modiste","","C","189","algLinUCB_0.9","diff-topics","high_school_mathematics","The following are multiple choice questions about high_school_mathematics.
Colton and his dad bought a gallon of paint that cost $13. They also bought 2 brushes that cost $9 each. What was the total cost, not including tax, of the brushes and the paint they bought?
(A) $22, (B) $24, (C) $31, (D) $35
Answer: C
Solve for y. y – 2 + 3y = 10
(A) 2, (B) 3, (C) 4, (D) 5
Answer: B
Solve 3 over 2 * w = 66.
(A) 33, (B) 44, (C) 88, (D) 99
Answer: B
Write 5.875 as a mixed number or fraction in simplest form.
(A) 5 and 8 over 9, (B) 5 and 7 over 8, (C) 7 over 8, (D) 5 and 87 over 105
Answer: B
Solve the equation 124 = m + 34.
(A) 158, (B) 90, (C) 88, (D) 4,216
Answer: B
Zelma buys p pounds of bananas for 40 cents per pound. She pays the clerk with a twenty-dollar bill. The clerk subtracts the total cost of the bananas from the twenty-dollar bill to determine the amount of change to give Zelma. Which expression represents the amount of change Zelma should receive?
(A) p - 20, (B) 20 - 40p, (C) 20 - 0.40p, (D) 0.40p - 20
Answer: C
Please answer the following question with just the correct option (A, B, C, or D) without any explanation or additional text.
In the equation |x-4| -10 = 2, what is the product of all possible values of x?
(A) '-8', (B) '128', (C) '-128', (D) '16'
Answer:","","","","","","","","","","","","","","","","","","","","","",""
"survey-html-form","44","4533831","0.0-4.0-1.12","dgt36f2quvomc98","66ea708303a080b84cc628a1","67b62c430b9240ccd8986e70","67b6319d1f9f0ea901ba7e7c","3","47517.19999998808","","","{""mcAnswer"":""D""}","","","In the equation |x-4| -10 = 2, what is the product of all possible values of x?","[""-8"",""128"",""-128"",""16""]","B","C","modiste","","C","189","algLinUCB_0.9","diff-topics","high_school_mathematics","The following are multiple choice questions about high_school_mathematics.
Colton and his dad bought a gallon of paint that cost $13. They also bought 2 brushes that cost $9 each. What was the total cost, not including tax, of the brushes and the paint they bought?
(A) $22, (B) $24, (C) $31, (D) $35
Answer: C
Solve for y. y – 2 + 3y = 10
(A) 2, (B) 3, (C) 4, (D) 5
Answer: B
Solve 3 over 2 * w = 66.
(A) 33, (B) 44, (C) 88, (D) 99
Answer: B
Write 5.875 as a mixed number or fraction in simplest form.
(A) 5 and 8 over 9, (B) 5 and 7 over 8, (C) 7 over 8, (D) 5 and 87 over 105
Answer: B
Solve the equation 124 = m + 34.
(A) 158, (B) 90, (C) 88, (D) 4,216
Answer: B
Zelma buys p pounds of bananas for 40 cents per pound. She pays the clerk with a twenty-dollar bill. The clerk subtracts the total cost of the bananas from the twenty-dollar bill to determine the amount of change to give Zelma. Which expression represents the amount of change Zelma should receive?
(A) p - 20, (B) 20 - 40p, (C) 20 - 0.40p, (D) 0.40p - 20
Answer: C
Please answer the following question with just the correct option (A, B, C, or D) without any explanation or additional text.
In the equation |x-4| -10 = 2, what is the product of all possible values of x?
(A) '-8', (B) '128', (C) '-128', (D) '16'
Answer:","","","","","","","","","","","","","","","","","","","","","",""
"","","","","","","","","","","","","","","","","","","","","","","","","","","","D","","","","","","","","","","","","","","","","","","","","",""
"","","","","","","","","","","","","","","","","","","","","","","","","","","","","false","157","-1","B","false","false","defer","[]","false","0","false","0","{""elementary_mathematics"":[""41/51"",""31/50"",""9/10""],""high_school_mathematics"":[""27/51"",""23/52"",""4/7""],""college_mathematics"":[""22/50"",""26/51"",""2/6""]}","{""elementary_mathematics"":false,""high_school_mathematics"":true,""college_mathematics"":false}","You should attempt this problem by yourself","null","null","null","null","true",""
"image-keyboard-response","45","4535336","0.0-4.0-2.12","dgt36f2quvomc98","66ea708303a080b84cc628a1","67b62c430b9240ccd8986e70","67b6319d1f9f0ea901ba7e7c","3","null","","","null","","","In the equation |x-4| -10 = 2, what is the product of all possible values of x?","[""-8"",""128"",""-128"",""16""]","B","C","modiste","","C","189","algLinUCB_0.9","diff-topics","high_school_mathematics","The following are multiple choice questions about high_school_mathematics.
Colton and his dad bought a gallon of paint that cost $13. They also bought 2 brushes that cost $9 each. What was the total cost, not including tax, of the brushes and the paint they bought?
(A) $22, (B) $24, (C) $31, (D) $35
Answer: C
Solve for y. y – 2 + 3y = 10
(A) 2, (B) 3, (C) 4, (D) 5
Answer: B
Solve 3 over 2 * w = 66.
(A) 33, (B) 44, (C) 88, (D) 99
Answer: B
Write 5.875 as a mixed number or fraction in simplest form.
(A) 5 and 8 over 9, (B) 5 and 7 over 8, (C) 7 over 8, (D) 5 and 87 over 105
Answer: B
Solve the equation 124 = m + 34.
(A) 158, (B) 90, (C) 88, (D) 4,216
Answer: B
Zelma buys p pounds of bananas for 40 cents per pound. She pays the clerk with a twenty-dollar bill. The clerk subtracts the total cost of the bananas from the twenty-dollar bill to determine the amount of change to give Zelma. Which expression represents the amount of change Zelma should receive?
(A) p - 20, (B) 20 - 40p, (C) 20 - 0.40p, (D) 0.40p - 20
Answer: C
Please answer the following question with just the correct option (A, B, C, or D) without any explanation or additional text.
In the equation |x-4| -10 = 2, what is the product of all possible values of x?
(A) '-8', (B) '128', (C) '-128', (D) '16'
Answer:","","","","","","","","","","","","","","","","","","","","","","feedback_imgs/Incorrect.png"
"call-function","46","4535336","0.0-4.0-0.13","dgt36f2quvomc98","66ea708303a080b84cc628a1","67b62c430b9240ccd8986e70","67b6319d1f9f0ea901ba7e7c","3","","","","","","defer","If x and y are directly proportional and x = 3 when y = 8, what is the value of x when y = 13?","[""0.615"",""4.875"",""15"",""34.667""]","B","B","modiste","","B","186","algLinUCB_0.9","diff-topics","high_school_mathematics","The following are multiple choice questions about high_school_mathematics.
Colton and his dad bought a gallon of paint that cost $13. They also bought 2 brushes that cost $9 each. What was the total cost, not including tax, of the brushes and the paint they bought?
(A) $22, (B) $24, (C) $31, (D) $35
Answer: C
Solve for y. y – 2 + 3y = 10
(A) 2, (B) 3, (C) 4, (D) 5
Answer: B
Solve 3 over 2 * w = 66.
(A) 33, (B) 44, (C) 88, (D) 99
Answer: B
Write 5.875 as a mixed number or fraction in simplest form.
(A) 5 and 8 over 9, (B) 5 and 7 over 8, (C) 7 over 8, (D) 5 and 87 over 105
Answer: B
Solve the equation 124 = m + 34.
(A) 158, (B) 90, (C) 88, (D) 4,216
Answer: B
Zelma buys p pounds of bananas for 40 cents per pound. She pays the clerk with a twenty-dollar bill. The clerk subtracts the total cost of the bananas from the twenty-dollar bill to determine the amount of change to give Zelma. Which expression represents the amount of change Zelma should receive?
(A) p - 20, (B) 20 - 40p, (C) 20 - 0.40p, (D) 0.40p - 20
Answer: C
Please answer the following question with just the correct option (A, B, C, or D) without any explanation or additional text.
If x and y are directly proportional and x = 3 when y = 8, what is the value of x when y = 13?
(A) '0.615', (B) '4.875', (C) '15', (D) '34.667'
Answer:","","","","","","","","","","true","2","","","","","","","","","","",""
"survey-html-form","47","4594335","0.0-4.0-1.13","dgt36f2quvomc98","66ea708303a080b84cc628a1","67b62c430b9240ccd8986e70","67b6319d1f9f0ea901ba7e7c","3","58989.19999998808","","","{""mcAnswer"":""B""}","","","If x and y are directly proportional and x = 3 when y = 8, what is the value of x when y = 13?","[""0.615"",""4.875"",""15"",""34.667""]","B","B","modiste","","B","186","algLinUCB_0.9","diff-topics","high_school_mathematics","The following are multiple choice questions about high_school_mathematics.
Colton and his dad bought a gallon of paint that cost $13. They also bought 2 brushes that cost $9 each. What was the total cost, not including tax, of the brushes and the paint they bought?
(A) $22, (B) $24, (C) $31, (D) $35
Answer: C
Solve for y. y – 2 + 3y = 10
(A) 2, (B) 3, (C) 4, (D) 5
Answer: B
Solve 3 over 2 * w = 66.
(A) 33, (B) 44, (C) 88, (D) 99
Answer: B
Write 5.875 as a mixed number or fraction in simplest form.
(A) 5 and 8 over 9, (B) 5 and 7 over 8, (C) 7 over 8, (D) 5 and 87 over 105
Answer: B
Solve the equation 124 = m + 34.
(A) 158, (B) 90, (C) 88, (D) 4,216
Answer: B
Zelma buys p pounds of bananas for 40 cents per pound. She pays the clerk with a twenty-dollar bill. The clerk subtracts the total cost of the bananas from the twenty-dollar bill to determine the amount of change to give Zelma. Which expression represents the amount of change Zelma should receive?
(A) p - 20, (B) 20 - 40p, (C) 20 - 0.40p, (D) 0.40p - 20
Answer: C
Please answer the following question with just the correct option (A, B, C, or D) without any explanation or additional text.
If x and y are directly proportional and x = 3 when y = 8, what is the value of x when y = 13?
(A) '0.615', (B) '4.875', (C) '15', (D) '34.667'
Answer:","","","","","","","","","","","","","","","","","","","","","",""
"","","","","","","","","","","","","","","","","","","","","","","","","","","","B","","","","","","","","","","","","","","","","","","","","",""
"","","","","","","","","","","","","","","","","","","","","","","","","","","","","false","160","-1","B","true","true","defer","[]","true","2","false","0","{""elementary_mathematics"":[""41/51"",""31/50"",""9/10""],""high_school_mathematics"":[""28/52"",""23/52"",""4/7""],""college_mathematics"":[""22/50"",""26/51"",""2/6""]}","{""elementary_mathematics"":false,""high_school_mathematics"":false,""college_mathematics"":false}","You were wrong by yourself on high_school_mathematics last time. You should outsource this problem to a human agent","null","false","null","true","null",""
"image-keyboard-response","48","4595839","0.0-4.0-2.13","dgt36f2quvomc98","66ea708303a080b84cc628a1","67b62c430b9240ccd8986e70","67b6319d1f9f0ea901ba7e7c","3","null","","","null","","","If x and y are directly proportional and x = 3 when y = 8, what is the value of x when y = 13?","[""0.615"",""4.875"",""15"",""34.667""]","B","B","modiste","","B","186","algLinUCB_0.9","diff-topics","high_school_mathematics","The following are multiple choice questions about high_school_mathematics.
Colton and his dad bought a gallon of paint that cost $13. They also bought 2 brushes that cost $9 each. What was the total cost, not including tax, of the brushes and the paint they bought?
(A) $22, (B) $24, (C) $31, (D) $35
Answer: C
Solve for y. y – 2 + 3y = 10
(A) 2, (B) 3, (C) 4, (D) 5
Answer: B
Solve 3 over 2 * w = 66.
(A) 33, (B) 44, (C) 88, (D) 99
Answer: B
Write 5.875 as a mixed number or fraction in simplest form.
(A) 5 and 8 over 9, (B) 5 and 7 over 8, (C) 7 over 8, (D) 5 and 87 over 105
Answer: B
Solve the equation 124 = m + 34.
(A) 158, (B) 90, (C) 88, (D) 4,216
Answer: B
Zelma buys p pounds of bananas for 40 cents per pound. She pays the clerk with a twenty-dollar bill. The clerk subtracts the total cost of the bananas from the twenty-dollar bill to determine the amount of change to give Zelma. Which expression represents the amount of change Zelma should receive?
(A) p - 20, (B) 20 - 40p, (C) 20 - 0.40p, (D) 0.40p - 20
Answer: C
Please answer the following question with just the correct option (A, B, C, or D) without any explanation or additional text.
If x and y are directly proportional and x = 3 when y = 8, what is the value of x when y = 13?
(A) '0.615', (B) '4.875', (C) '15', (D) '34.667'
Answer:","","","","","","","","","","","","","","","","","","","","","","feedback_imgs/Correct.png"
"call-function","49","4595839","0.0-4.0-0.14","dgt36f2quvomc98","66ea708303a080b84cc628a1","67b62c430b9240ccd8986e70","67b6319d1f9f0ea901ba7e7c","3","","","","","","defer","What is -18/7/-6/5?","[""7/15"",""15/7"",""15/8"",""15/11""]","B","B","modiste","","B","196","algLinUCB_0.9","diff-topics","high_school_mathematics","The following are multiple choice questions about high_school_mathematics.
Colton and his dad bought a gallon of paint that cost $13. They also bought 2 brushes that cost $9 each. What was the total cost, not including tax, of the brushes and the paint they bought?
(A) $22, (B) $24, (C) $31, (D) $35
Answer: C
Solve for y. y – 2 + 3y = 10
(A) 2, (B) 3, (C) 4, (D) 5
Answer: B
Solve 3 over 2 * w = 66.
(A) 33, (B) 44, (C) 88, (D) 99
Answer: B
Write 5.875 as a mixed number or fraction in simplest form.
(A) 5 and 8 over 9, (B) 5 and 7 over 8, (C) 7 over 8, (D) 5 and 87 over 105
Answer: B
Solve the equation 124 = m + 34.
(A) 158, (B) 90, (C) 88, (D) 4,216
Answer: B
Zelma buys p pounds of bananas for 40 cents per pound. She pays the clerk with a twenty-dollar bill. The clerk subtracts the total cost of the bananas from the twenty-dollar bill to determine the amount of change to give Zelma. Which expression represents the amount of change Zelma should receive?
(A) p - 20, (B) 20 - 40p, (C) 20 - 0.40p, (D) 0.40p - 20
Answer: C
Please answer the following question with just the correct option (A, B, C, or D) without any explanation or additional text.
What is -18/7/-6/5?
(A) '7/15', (B) '15/7', (C) '15/8', (D) '15/11'
Answer:","","","","","","","","","","","","","","","","","","","","","",""
"survey-html-form","50","4779568","0.0-4.0-1.14","dgt36f2quvomc98","66ea708303a080b84cc628a1","67b62c430b9240ccd8986e70","67b6319d1f9f0ea901ba7e7c","3","183718.69999998808","","","{""mcAnswer"":""B""}","","","What is -18/7/-6/5?","[""7/15"",""15/7"",""15/8"",""15/11""]","B","B","modiste","","B","196","algLinUCB_0.9","diff-topics","high_school_mathematics","The following are multiple choice questions about high_school_mathematics.
Colton and his dad bought a gallon of paint that cost $13. They also bought 2 brushes that cost $9 each. What was the total cost, not including tax, of the brushes and the paint they bought?
(A) $22, (B) $24, (C) $31, (D) $35
Answer: C
Solve for y. y – 2 + 3y = 10
(A) 2, (B) 3, (C) 4, (D) 5
Answer: B
Solve 3 over 2 * w = 66.
(A) 33, (B) 44, (C) 88, (D) 99
Answer: B
Write 5.875 as a mixed number or fraction in simplest form.
(A) 5 and 8 over 9, (B) 5 and 7 over 8, (C) 7 over 8, (D) 5 and 87 over 105
Answer: B
Solve the equation 124 = m + 34.
(A) 158, (B) 90, (C) 88, (D) 4,216
Answer: B
Zelma buys p pounds of bananas for 40 cents per pound. She pays the clerk with a twenty-dollar bill. The clerk subtracts the total cost of the bananas from the twenty-dollar bill to determine the amount of change to give Zelma. Which expression represents the amount of change Zelma should receive?
(A) p - 20, (B) 20 - 40p, (C) 20 - 0.40p, (D) 0.40p - 20
Answer: C
Please answer the following question with just the correct option (A, B, C, or D) without any explanation or additional text.
What is -18/7/-6/5?
(A) '7/15', (B) '15/7', (C) '15/8', (D) '15/11'
Answer:","","","","","","","","","","","","","","","","","","","","","",""
"","","","","","","","","","","","","","","","","","","","","","","","","","","","B","","","","","","","","","","","","","","","","","","","","",""
"","","","","","","","","","","","","","","","","","","","","","","","","","","","","false","170","-1","B","true","true","defer","[]","false","0","false","0","{""elementary_mathematics"":[""41/51"",""31/50"",""9/10""],""high_school_mathematics"":[""28/52"",""23/52"",""5/8""],""college_mathematics"":[""22/50"",""26/51"",""2/6""]}","{""elementary_mathematics"":false,""high_school_mathematics"":false,""college_mathematics"":false}","You should attempt this problem by yourself","null","null","null","null","true",""
"image-keyboard-response","51","4781072","0.0-4.0-2.14","dgt36f2quvomc98","66ea708303a080b84cc628a1","67b62c430b9240ccd8986e70","67b6319d1f9f0ea901ba7e7c","3","null","","","null","","","What is -18/7/-6/5?","[""7/15"",""15/7"",""15/8"",""15/11""]","B","B","modiste","","B","196","algLinUCB_0.9","diff-topics","high_school_mathematics","The following are multiple choice questions about high_school_mathematics.
Colton and his dad bought a gallon of paint that cost $13. They also bought 2 brushes that cost $9 each. What was the total cost, not including tax, of the brushes and the paint they bought?
(A) $22, (B) $24, (C) $31, (D) $35
Answer: C
Solve for y. y – 2 + 3y = 10
(A) 2, (B) 3, (C) 4, (D) 5
Answer: B
Solve 3 over 2 * w = 66.
(A) 33, (B) 44, (C) 88, (D) 99
Answer: B
Write 5.875 as a mixed number or fraction in simplest form.
(A) 5 and 8 over 9, (B) 5 and 7 over 8, (C) 7 over 8, (D) 5 and 87 over 105
Answer: B
Solve the equation 124 = m + 34.
(A) 158, (B) 90, (C) 88, (D) 4,216
Answer: B
Zelma buys p pounds of bananas for 40 cents per pound. She pays the clerk with a twenty-dollar bill. The clerk subtracts the total cost of the bananas from the twenty-dollar bill to determine the amount of change to give Zelma. Which expression represents the amount of change Zelma should receive?
(A) p - 20, (B) 20 - 40p, (C) 20 - 0.40p, (D) 0.40p - 20
Answer: C
Please answer the following question with just the correct option (A, B, C, or D) without any explanation or additional text.
What is -18/7/-6/5?
(A) '7/15', (B) '15/7', (C) '15/8', (D) '15/11'
Answer:","","","","","","","","","","","","","","","","","","","","","","feedback_imgs/Correct.png"
"call-function","52","4781072","0.0-4.0-0.15","dgt36f2quvomc98","66ea708303a080b84cc628a1","67b62c430b9240ccd8986e70","67b6319d1f9f0ea901ba7e7c","3","","","","","","defer","How many real roots does the polynomial 2x^5 + 8x - 7 have?","[""None"",""One"",""Two"",""Three""]","B","B","modiste","","B","220","algLinUCB_0.9","diff-topics","college_mathematics","The following are multiple choice questions about high_school_mathematics.
Colton and his dad bought a gallon of paint that cost $13. They also bought 2 brushes that cost $9 each. What was the total cost, not including tax, of the brushes and the paint they bought?
(A) $22, (B) $24, (C) $31, (D) $35
Answer: C
Solve for y. y – 2 + 3y = 10
(A) 2, (B) 3, (C) 4, (D) 5
Answer: B
Solve 3 over 2 * w = 66.
(A) 33, (B) 44, (C) 88, (D) 99
Answer: B
Write 5.875 as a mixed number or fraction in simplest form.
(A) 5 and 8 over 9, (B) 5 and 7 over 8, (C) 7 over 8, (D) 5 and 87 over 105
Answer: B
Solve the equation 124 = m + 34.
(A) 158, (B) 90, (C) 88, (D) 4,216
Answer: B
Zelma buys p pounds of bananas for 40 cents per pound. She pays the clerk with a twenty-dollar bill. The clerk subtracts the total cost of the bananas from the twenty-dollar bill to determine the amount of change to give Zelma. Which expression represents the amount of change Zelma should receive?
(A) p - 20, (B) 20 - 40p, (C) 20 - 0.40p, (D) 0.40p - 20
Answer: C
Please answer the following question with just the correct option (A, B, C, or D) without any explanation or additional text.
How many real roots does the polynomial 2x^5 + 8x - 7 have?
(A) 'None', (B) 'One', (C) 'Two', (D) 'Three'
Answer:","","","","","","","","","","","","true","2","","","","","","","","",""
"survey-html-form","53","4830284","0.0-4.0-1.15","dgt36f2quvomc98","66ea708303a080b84cc628a1","67b62c430b9240ccd8986e70","67b6319d1f9f0ea901ba7e7c","3","49203.29999998212","","","{""mcAnswer"":""B""}","","","How many real roots does the polynomial 2x^5 + 8x - 7 have?","[""None"",""One"",""Two"",""Three""]","B","B","modiste","","B","220","algLinUCB_0.9","diff-topics","college_mathematics","The following are multiple choice questions about high_school_mathematics.
Colton and his dad bought a gallon of paint that cost $13. They also bought 2 brushes that cost $9 each. What was the total cost, not including tax, of the brushes and the paint they bought?
(A) $22, (B) $24, (C) $31, (D) $35
Answer: C
Solve for y. y – 2 + 3y = 10
(A) 2, (B) 3, (C) 4, (D) 5
Answer: B
Solve 3 over 2 * w = 66.
(A) 33, (B) 44, (C) 88, (D) 99
Answer: B
Write 5.875 as a mixed number or fraction in simplest form.
(A) 5 and 8 over 9, (B) 5 and 7 over 8, (C) 7 over 8, (D) 5 and 87 over 105
Answer: B
Solve the equation 124 = m + 34.
(A) 158, (B) 90, (C) 88, (D) 4,216
Answer: B
