"trial_type","trial_index","time_elapsed","internal_node_id","subject","prolific_id","study_id","session_id","condition","rt","url","view_history","response","question_order","value","question","options","llm_answer","population_answer","task","subj_id","label","example_id","variant","main_variant","topic","prompt","0","btn_clicked","score","timeToClick","modelPred","humanCorrect","modelCorrect","interfaceType","modelPredDist","human_support_used","human_support_clicks","llm_support_used","llm_support_clicks","recommendation_lists","incorrect_answers_by_category","recommendation","LLM_outsourcing_overridden","human_outsourcing_overridden","ai_orch_agreement","human_orch_agreement","self_orch_agreement","stimulus"
"pavlovia","0","2421","0.0-0.0","2vll9ku1bv0sco8","6669e7470edffb0d8da619c2","67b62c430b9240ccd8986e70","67b63828dd8c64fd5d745533","4","","","","","","","","","","","","","","","","","","","","","","","","","","","","","","","","","","","","","","","",""
"external-html","1","31923","0.0-1.0","2vll9ku1bv0sco8","6669e7470edffb0d8da619c2","67b62c430b9240ccd8986e70","67b63828dd8c64fd5d745533","4","29348.100000023842","consent.html","","","","","","","","","","","","","","","","","","","","","","","","","","","","","","","","","","","","","",""
"instructions","2","126571","0.0-2.0-0.0","2vll9ku1bv0sco8","6669e7470edffb0d8da619c2","67b62c430b9240ccd8986e70","67b63828dd8c64fd5d745533","4","94646.89999997616","","[{""page_index"":0,""viewing_time"":15239.399999976158},{""page_index"":1,""viewing_time"":34199.19999998808},{""page_index"":2,""viewing_time"":4304},{""page_index"":3,""viewing_time"":12079.900000035763},{""page_index"":4,""viewing_time"":9624.199999988079},{""page_index"":5,""viewing_time"":11968.599999964237},{""page_index"":6,""viewing_time"":1119.300000011921},{""page_index"":7,""viewing_time"":6112.100000023842}]","","","","","","","","","","","","","","","","","","","","","","","","","","","","","","","","","","","","",""
"survey-multi-choice","3","150811","0.0-2.0-1.0","2vll9ku1bv0sco8","6669e7470edffb0d8da619c2","67b62c430b9240ccd8986e70","67b63828dd8c64fd5d745533","4","24239.19999998808","","","{""Q0"":""The answer to a mutliple choice question."",""Q1"":""Selecting from a dropdown menu.""}","[0,1]","","","","","","","","","","","","","","","","","","","","","","","","","","","","","","","","","","",""
"instructions","4","189698","0.0-2.1-0.1","2vll9ku1bv0sco8","6669e7470edffb0d8da619c2","67b62c430b9240ccd8986e70","67b63828dd8c64fd5d745533","4","38886.5","","[{""page_index"":0,""viewing_time"":13966.300000011921},{""page_index"":1,""viewing_time"":4280.199999988079},{""page_index"":2,""viewing_time"":12960},{""page_index"":3,""viewing_time"":2576},{""page_index"":2,""viewing_time"":2887.899999976158},{""page_index"":3,""viewing_time"":184.10000002384186},{""page_index"":4,""viewing_time"":288},{""page_index"":5,""viewing_time"":543.8999999761581},{""page_index"":6,""viewing_time"":776.1000000238419},{""page_index"":7,""viewing_time"":423.89999997615814}]","","","","","","","","","","","","","","","","","","","","","","","","","","","","","","","","","","","","",""
"survey-multi-choice","5","198507","0.0-2.1-1.1","2vll9ku1bv0sco8","6669e7470edffb0d8da619c2","67b62c430b9240ccd8986e70","67b63828dd8c64fd5d745533","4","8807.800000011921","","","{""Q0"":""The most likely categories of an image."",""Q1"":""Clicking on a radio button.""}","[0,1]","","","","","","","","","","","","","","","","","","","","","","","","","","","","","","","","","","",""
"instructions","6","242859","0.0-2.2-0.2","2vll9ku1bv0sco8","6669e7470edffb0d8da619c2","67b62c430b9240ccd8986e70","67b63828dd8c64fd5d745533","4","44351.200000047684","","[{""page_index"":0,""viewing_time"":2366.900000035763},{""page_index"":1,""viewing_time"":1711.8999999761581},{""page_index"":2,""viewing_time"":4008.100000023842},{""page_index"":3,""viewing_time"":18472},{""page_index"":2,""viewing_time"":8064.300000011921},{""page_index"":3,""viewing_time"":2591.599999964237},{""page_index"":4,""viewing_time"":1288.1000000238419},{""page_index"":5,""viewing_time"":2271.599999964237},{""page_index"":6,""viewing_time"":904},{""page_index"":7,""viewing_time"":2672.5}]","","","","","","","","","","","","","","","","","","","","","","","","","","","","","","","","","","","","",""
"survey-multi-choice","7","250787","0.0-2.2-1.2","2vll9ku1bv0sco8","6669e7470edffb0d8da619c2","67b62c430b9240ccd8986e70","67b63828dd8c64fd5d745533","4","7927.699999988079","","","{""Q0"":""The answer to a mutliple choice question."",""Q1"":""Clicking on a radio button.""}","[0,1]","","","","","","","","","","","","","","","","","","","","","","","","","","","","","","","","","","",""
"instructions","8","273386","0.0-3.0","2vll9ku1bv0sco8","6669e7470edffb0d8da619c2","67b62c430b9240ccd8986e70","67b63828dd8c64fd5d745533","4","22598.900000035763","","[{""page_index"":0,""viewing_time"":22598.80000001192}]","","","","","","","","","","","","","","","","","","","","","","","","","","","","","","","","","","","","",""
"call-function","9","273387","0.0-4.0-0.0","2vll9ku1bv0sco8","6669e7470edffb0d8da619c2","67b62c430b9240ccd8986e70","67b63828dd8c64fd5d745533","4","","","","","","defer","If A is the 2 by 2 matrix whose (i, j) entry is equal to i + j, and B is the 3 by 3 matrix whose (i, j) entry is equal to i + j, find the value of the sum detA + detB.","[""-2"",""-1"",""0"",""2""]","C","B","modiste","","B","290","algLinUCB_0.9","diff-topics","college_mathematics","The following are multiple choice questions about high_school_mathematics.
Colton and his dad bought a gallon of paint that cost $13. They also bought 2 brushes that cost $9 each. What was the total cost, not including tax, of the brushes and the paint they bought?
(A) $22, (B) $24, (C) $31, (D) $35
Answer: C
Solve for y. y – 2 + 3y = 10
(A) 2, (B) 3, (C) 4, (D) 5
Answer: B
Solve 3 over 2 * w = 66.
(A) 33, (B) 44, (C) 88, (D) 99
Answer: B
Write 5.875 as a mixed number or fraction in simplest form.
(A) 5 and 8 over 9, (B) 5 and 7 over 8, (C) 7 over 8, (D) 5 and 87 over 105
Answer: B
Solve the equation 124 = m + 34.
(A) 158, (B) 90, (C) 88, (D) 4,216
Answer: B
Zelma buys p pounds of bananas for 40 cents per pound. She pays the clerk with a twenty-dollar bill. The clerk subtracts the total cost of the bananas from the twenty-dollar bill to determine the amount of change to give Zelma. Which expression represents the amount of change Zelma should receive?
(A) p - 20, (B) 20 - 40p, (C) 20 - 0.40p, (D) 0.40p - 20
Answer: C
Please answer the following question with just the correct option (A, B, C, or D) without any explanation or additional text.
If A is the 2 by 2 matrix whose (i, j) entry is equal to i + j, and B is the 3 by 3 matrix whose (i, j) entry is equal to i + j, find the value of the sum detA + detB.
(A) '-2', (B) '-1', (C) '0', (D) '2'
Answer:","","","","","","","","","","","","","","","","","","","","","",""
"survey-html-form","10","318779","0.0-4.0-1.0","2vll9ku1bv0sco8","6669e7470edffb0d8da619c2","67b62c430b9240ccd8986e70","67b63828dd8c64fd5d745533","4","45390.60000002384","","","{""mcAnswer"":""D""}","","","If A is the 2 by 2 matrix whose (i, j) entry is equal to i + j, and B is the 3 by 3 matrix whose (i, j) entry is equal to i + j, find the value of the sum detA + detB.","[""-2"",""-1"",""0"",""2""]","C","B","modiste","","B","290","algLinUCB_0.9","diff-topics","college_mathematics","The following are multiple choice questions about high_school_mathematics.
Colton and his dad bought a gallon of paint that cost $13. They also bought 2 brushes that cost $9 each. What was the total cost, not including tax, of the brushes and the paint they bought?
(A) $22, (B) $24, (C) $31, (D) $35
Answer: C
Solve for y. y – 2 + 3y = 10
(A) 2, (B) 3, (C) 4, (D) 5
Answer: B
Solve 3 over 2 * w = 66.
(A) 33, (B) 44, (C) 88, (D) 99
Answer: B
Write 5.875 as a mixed number or fraction in simplest form.
(A) 5 and 8 over 9, (B) 5 and 7 over 8, (C) 7 over 8, (D) 5 and 87 over 105
Answer: B
Solve the equation 124 = m + 34.
(A) 158, (B) 90, (C) 88, (D) 4,216
Answer: B
Zelma buys p pounds of bananas for 40 cents per pound. She pays the clerk with a twenty-dollar bill. The clerk subtracts the total cost of the bananas from the twenty-dollar bill to determine the amount of change to give Zelma. Which expression represents the amount of change Zelma should receive?
(A) p - 20, (B) 20 - 40p, (C) 20 - 0.40p, (D) 0.40p - 20
Answer: C
Please answer the following question with just the correct option (A, B, C, or D) without any explanation or additional text.
If A is the 2 by 2 matrix whose (i, j) entry is equal to i + j, and B is the 3 by 3 matrix whose (i, j) entry is equal to i + j, find the value of the sum detA + detB.
(A) '-2', (B) '-1', (C) '0', (D) '2'
Answer:","","","","","","","","","","","","","","","","","","","","","",""
"","","","","","","","","","","","","","","","","","","","","","","","","","","","D","","","","","","","","","","","","","","","","","","","","",""
"","","","","","","","","","","","","","","","","","","","","","","","","","","","","false","100","-1","C","false","false","defer","[]","false","0","false","0","{""elementary_mathematics"":[""40/50"",""31/50"",""4 / 5""],""high_school_mathematics"":[""27/50"",""22/50"",""3 / 5""],""college_mathematics"":[""22/50"",""26/50"",""2/6""]}","{""college_mathematics"":true}","You should outsource this problem to the AI agent","null","null","false","null","null",""
"image-keyboard-response","11","320284","0.0-4.0-2.0","2vll9ku1bv0sco8","6669e7470edffb0d8da619c2","67b62c430b9240ccd8986e70","67b63828dd8c64fd5d745533","4","null","","","null","","","If A is the 2 by 2 matrix whose (i, j) entry is equal to i + j, and B is the 3 by 3 matrix whose (i, j) entry is equal to i + j, find the value of the sum detA + detB.","[""-2"",""-1"",""0"",""2""]","C","B","modiste","","B","290","algLinUCB_0.9","diff-topics","college_mathematics","The following are multiple choice questions about high_school_mathematics.
Colton and his dad bought a gallon of paint that cost $13. They also bought 2 brushes that cost $9 each. What was the total cost, not including tax, of the brushes and the paint they bought?
(A) $22, (B) $24, (C) $31, (D) $35
Answer: C
Solve for y. y – 2 + 3y = 10
(A) 2, (B) 3, (C) 4, (D) 5
Answer: B
Solve 3 over 2 * w = 66.
(A) 33, (B) 44, (C) 88, (D) 99
Answer: B
Write 5.875 as a mixed number or fraction in simplest form.
(A) 5 and 8 over 9, (B) 5 and 7 over 8, (C) 7 over 8, (D) 5 and 87 over 105
Answer: B
Solve the equation 124 = m + 34.
(A) 158, (B) 90, (C) 88, (D) 4,216
Answer: B
Zelma buys p pounds of bananas for 40 cents per pound. She pays the clerk with a twenty-dollar bill. The clerk subtracts the total cost of the bananas from the twenty-dollar bill to determine the amount of change to give Zelma. Which expression represents the amount of change Zelma should receive?
(A) p - 20, (B) 20 - 40p, (C) 20 - 0.40p, (D) 0.40p - 20
Answer: C
Please answer the following question with just the correct option (A, B, C, or D) without any explanation or additional text.
If A is the 2 by 2 matrix whose (i, j) entry is equal to i + j, and B is the 3 by 3 matrix whose (i, j) entry is equal to i + j, find the value of the sum detA + detB.
(A) '-2', (B) '-1', (C) '0', (D) '2'
Answer:","","","","","","","","","","","","","","","","","","","","","","feedback_imgs/Incorrect.png"
"call-function","12","320285","0.0-4.0-0.1","2vll9ku1bv0sco8","6669e7470edffb0d8da619c2","67b62c430b9240ccd8986e70","67b63828dd8c64fd5d745533","4","","","","","","defer","John noticed that the angle formed by the minute hand and hour hand on a standard 12-hour clock was 110 degrees when he left home after 6 p.m.; it was also 110 degrees when he returned after 6 p.m. but before 7 p.m. that same night. If he left home for more than five minutes, for how many minutes was he away?","[""36"",""40"",""38"",""43""]","C","A","modiste","","B","255","algLinUCB_0.9","diff-topics","high_school_mathematics","The following are multiple choice questions about high_school_mathematics.
Colton and his dad bought a gallon of paint that cost $13. They also bought 2 brushes that cost $9 each. What was the total cost, not including tax, of the brushes and the paint they bought?
(A) $22, (B) $24, (C) $31, (D) $35
Answer: C
Solve for y. y – 2 + 3y = 10
(A) 2, (B) 3, (C) 4, (D) 5
Answer: B
Solve 3 over 2 * w = 66.
(A) 33, (B) 44, (C) 88, (D) 99
Answer: B
Write 5.875 as a mixed number or fraction in simplest form.
(A) 5 and 8 over 9, (B) 5 and 7 over 8, (C) 7 over 8, (D) 5 and 87 over 105
Answer: B
Solve the equation 124 = m + 34.
(A) 158, (B) 90, (C) 88, (D) 4,216
Answer: B
Zelma buys p pounds of bananas for 40 cents per pound. She pays the clerk with a twenty-dollar bill. The clerk subtracts the total cost of the bananas from the twenty-dollar bill to determine the amount of change to give Zelma. Which expression represents the amount of change Zelma should receive?
(A) p - 20, (B) 20 - 40p, (C) 20 - 0.40p, (D) 0.40p - 20
Answer: C
Please answer the following question with just the correct option (A, B, C, or D) without any explanation or additional text.
John noticed that the angle formed by the minute hand and hour hand on a standard 12-hour clock was 110 degrees when he left home after 6 p.m.; it was also 110 degrees when he returned after 6 p.m. but before 7 p.m. that same night. If he left home for more than five minutes, for how many minutes was he away?
(A) '36', (B) '40', (C) '38', (D) '43'
Answer:","","","","","","","","","","","","true","2","","","","","","","","",""
"survey-html-form","13","381419","0.0-4.0-1.1","2vll9ku1bv0sco8","6669e7470edffb0d8da619c2","67b62c430b9240ccd8986e70","67b63828dd8c64fd5d745533","4","61131.700000047684","","","{""mcAnswer"":""C""}","","","John noticed that the angle formed by the minute hand and hour hand on a standard 12-hour clock was 110 degrees when he left home after 6 p.m.; it was also 110 degrees when he returned after 6 p.m. but before 7 p.m. that same night. If he left home for more than five minutes, for how many minutes was he away?","[""36"",""40"",""38"",""43""]","C","A","modiste","","B","255","algLinUCB_0.9","diff-topics","high_school_mathematics","The following are multiple choice questions about high_school_mathematics.
Colton and his dad bought a gallon of paint that cost $13. They also bought 2 brushes that cost $9 each. What was the total cost, not including tax, of the brushes and the paint they bought?
(A) $22, (B) $24, (C) $31, (D) $35
Answer: C
Solve for y. y – 2 + 3y = 10
(A) 2, (B) 3, (C) 4, (D) 5
Answer: B
Solve 3 over 2 * w = 66.
(A) 33, (B) 44, (C) 88, (D) 99
Answer: B
Write 5.875 as a mixed number or fraction in simplest form.
(A) 5 and 8 over 9, (B) 5 and 7 over 8, (C) 7 over 8, (D) 5 and 87 over 105
Answer: B
Solve the equation 124 = m + 34.
(A) 158, (B) 90, (C) 88, (D) 4,216
Answer: B
Zelma buys p pounds of bananas for 40 cents per pound. She pays the clerk with a twenty-dollar bill. The clerk subtracts the total cost of the bananas from the twenty-dollar bill to determine the amount of change to give Zelma. Which expression represents the amount of change Zelma should receive?
(A) p - 20, (B) 20 - 40p, (C) 20 - 0.40p, (D) 0.40p - 20
Answer: C
Please answer the following question with just the correct option (A, B, C, or D) without any explanation or additional text.
John noticed that the angle formed by the minute hand and hour hand on a standard 12-hour clock was 110 degrees when he left home after 6 p.m.; it was also 110 degrees when he returned after 6 p.m. but before 7 p.m. that same night. If he left home for more than five minutes, for how many minutes was he away?
(A) '36', (B) '40', (C) '38', (D) '43'
Answer:","","","","","","","","","","","","","","","","","","","","","",""
"","","","","","","","","","","","","","","","","","","","","","","","","","","","C","","","","","","","","","","","","","","","","","","","","",""
"","","","","","","","","","","","","","","","","","","","","","","","","","","","","false","97","-1","C","false","false","defer","[]","false","0","true","2","{""elementary_mathematics"":[""40/50"",""31/50"",""4 / 5""],""high_school_mathematics"":[""27/50"",""22/51"",""3 / 5""],""college_mathematics"":[""22/50"",""26/50"",""2/6""]}","{""college_mathematics"":true,""high_school_mathematics"":false}","You should attempt this problem by yourself","false","null","null","null","false",""
"image-keyboard-response","14","382921","0.0-4.0-2.1","2vll9ku1bv0sco8","6669e7470edffb0d8da619c2","67b62c430b9240ccd8986e70","67b63828dd8c64fd5d745533","4","null","","","null","","","John noticed that the angle formed by the minute hand and hour hand on a standard 12-hour clock was 110 degrees when he left home after 6 p.m.; it was also 110 degrees when he returned after 6 p.m. but before 7 p.m. that same night. If he left home for more than five minutes, for how many minutes was he away?","[""36"",""40"",""38"",""43""]","C","A","modiste","","B","255","algLinUCB_0.9","diff-topics","high_school_mathematics","The following are multiple choice questions about high_school_mathematics.
Colton and his dad bought a gallon of paint that cost $13. They also bought 2 brushes that cost $9 each. What was the total cost, not including tax, of the brushes and the paint they bought?
(A) $22, (B) $24, (C) $31, (D) $35
Answer: C
Solve for y. y – 2 + 3y = 10
(A) 2, (B) 3, (C) 4, (D) 5
Answer: B
Solve 3 over 2 * w = 66.
(A) 33, (B) 44, (C) 88, (D) 99
Answer: B
Write 5.875 as a mixed number or fraction in simplest form.
(A) 5 and 8 over 9, (B) 5 and 7 over 8, (C) 7 over 8, (D) 5 and 87 over 105
Answer: B
Solve the equation 124 = m + 34.
(A) 158, (B) 90, (C) 88, (D) 4,216
Answer: B
Zelma buys p pounds of bananas for 40 cents per pound. She pays the clerk with a twenty-dollar bill. The clerk subtracts the total cost of the bananas from the twenty-dollar bill to determine the amount of change to give Zelma. Which expression represents the amount of change Zelma should receive?
(A) p - 20, (B) 20 - 40p, (C) 20 - 0.40p, (D) 0.40p - 20
Answer: C
Please answer the following question with just the correct option (A, B, C, or D) without any explanation or additional text.
John noticed that the angle formed by the minute hand and hour hand on a standard 12-hour clock was 110 degrees when he left home after 6 p.m.; it was also 110 degrees when he returned after 6 p.m. but before 7 p.m. that same night. If he left home for more than five minutes, for how many minutes was he away?
(A) '36', (B) '40', (C) '38', (D) '43'
Answer:","","","","","","","","","","","","","","","","","","","","","","feedback_imgs/Incorrect.png"
"call-function","15","382921","0.0-4.0-0.2","2vll9ku1bv0sco8","6669e7470edffb0d8da619c2","67b62c430b9240ccd8986e70","67b63828dd8c64fd5d745533","4","","","","","","defer","Use a number line to find the sum of −9 + (−8).","[""−17"",""1"",""−1"",""17""]","A","A","modiste","","A","261","algLinUCB_0.9","diff-topics","elementary_mathematics","The following are multiple choice questions about high_school_mathematics.
Colton and his dad bought a gallon of paint that cost $13. They also bought 2 brushes that cost $9 each. What was the total cost, not including tax, of the brushes and the paint they bought?
(A) $22, (B) $24, (C) $31, (D) $35
Answer: C
Solve for y. y – 2 + 3y = 10
(A) 2, (B) 3, (C) 4, (D) 5
Answer: B
Solve 3 over 2 * w = 66.
(A) 33, (B) 44, (C) 88, (D) 99
Answer: B
Write 5.875 as a mixed number or fraction in simplest form.
(A) 5 and 8 over 9, (B) 5 and 7 over 8, (C) 7 over 8, (D) 5 and 87 over 105
Answer: B
Solve the equation 124 = m + 34.
(A) 158, (B) 90, (C) 88, (D) 4,216
Answer: B
Zelma buys p pounds of bananas for 40 cents per pound. She pays the clerk with a twenty-dollar bill. The clerk subtracts the total cost of the bananas from the twenty-dollar bill to determine the amount of change to give Zelma. Which expression represents the amount of change Zelma should receive?
(A) p - 20, (B) 20 - 40p, (C) 20 - 0.40p, (D) 0.40p - 20
Answer: C
Please answer the following question with just the correct option (A, B, C, or D) without any explanation or additional text.
Use a number line to find the sum of −9 + (−8).
(A) '−17', (B) '1', (C) '−1', (D) '17'
Answer:","","","","","","","","","","","","","","","","","","","","","",""
"survey-html-form","16","394291","0.0-4.0-1.2","2vll9ku1bv0sco8","6669e7470edffb0d8da619c2","67b62c430b9240ccd8986e70","67b63828dd8c64fd5d745533","4","11367.100000023842","","","{""mcAnswer"":""A""}","","","Use a number line to find the sum of −9 + (−8).","[""−17"",""1"",""−1"",""17""]","A","A","modiste","","A","261","algLinUCB_0.9","diff-topics","elementary_mathematics","The following are multiple choice questions about high_school_mathematics.
Colton and his dad bought a gallon of paint that cost $13. They also bought 2 brushes that cost $9 each. What was the total cost, not including tax, of the brushes and the paint they bought?
(A) $22, (B) $24, (C) $31, (D) $35
Answer: C
Solve for y. y – 2 + 3y = 10
(A) 2, (B) 3, (C) 4, (D) 5
Answer: B
Solve 3 over 2 * w = 66.
(A) 33, (B) 44, (C) 88, (D) 99
Answer: B
Write 5.875 as a mixed number or fraction in simplest form.
(A) 5 and 8 over 9, (B) 5 and 7 over 8, (C) 7 over 8, (D) 5 and 87 over 105
Answer: B
Solve the equation 124 = m + 34.
(A) 158, (B) 90, (C) 88, (D) 4,216
Answer: B
Zelma buys p pounds of bananas for 40 cents per pound. She pays the clerk with a twenty-dollar bill. The clerk subtracts the total cost of the bananas from the twenty-dollar bill to determine the amount of change to give Zelma. Which expression represents the amount of change Zelma should receive?
(A) p - 20, (B) 20 - 40p, (C) 20 - 0.40p, (D) 0.40p - 20
Answer: C
Please answer the following question with just the correct option (A, B, C, or D) without any explanation or additional text.
Use a number line to find the sum of −9 + (−8).
(A) '−17', (B) '1', (C) '−1', (D) '17'
Answer:","","","","","","","","","","","","","","","","","","","","","",""
"","","","","","","","","","","","","","","","","","","","","","","","","","","","A","","","","","","","","","","","","","","","","","","","","",""
"","","","","","","","","","","","","","","","","","","","","","","","","","","","","false","107","-1","A","true","true","defer","[]","false","0","false","0","{""elementary_mathematics"":[""40/50"",""31/50"",""5/6""],""high_school_mathematics"":[""27/50"",""22/51"",""3 / 5""],""college_mathematics"":[""22/50"",""26/50"",""2/6""]}","{""college_mathematics"":true,""high_school_mathematics"":false,""elementary_mathematics"":false}","You should attempt this problem by yourself","null","null","null","null","true",""
"image-keyboard-response","17","395792","0.0-4.0-2.2","2vll9ku1bv0sco8","6669e7470edffb0d8da619c2","67b62c430b9240ccd8986e70","67b63828dd8c64fd5d745533","4","null","","","null","","","Use a number line to find the sum of −9 + (−8).","[""−17"",""1"",""−1"",""17""]","A","A","modiste","","A","261","algLinUCB_0.9","diff-topics","elementary_mathematics","The following are multiple choice questions about high_school_mathematics.
Colton and his dad bought a gallon of paint that cost $13. They also bought 2 brushes that cost $9 each. What was the total cost, not including tax, of the brushes and the paint they bought?
(A) $22, (B) $24, (C) $31, (D) $35
Answer: C
Solve for y. y – 2 + 3y = 10
(A) 2, (B) 3, (C) 4, (D) 5
Answer: B
Solve 3 over 2 * w = 66.
(A) 33, (B) 44, (C) 88, (D) 99
Answer: B
Write 5.875 as a mixed number or fraction in simplest form.
(A) 5 and 8 over 9, (B) 5 and 7 over 8, (C) 7 over 8, (D) 5 and 87 over 105
Answer: B
Solve the equation 124 = m + 34.
(A) 158, (B) 90, (C) 88, (D) 4,216
Answer: B
Zelma buys p pounds of bananas for 40 cents per pound. She pays the clerk with a twenty-dollar bill. The clerk subtracts the total cost of the bananas from the twenty-dollar bill to determine the amount of change to give Zelma. Which expression represents the amount of change Zelma should receive?
(A) p - 20, (B) 20 - 40p, (C) 20 - 0.40p, (D) 0.40p - 20
Answer: C
Please answer the following question with just the correct option (A, B, C, or D) without any explanation or additional text.
Use a number line to find the sum of −9 + (−8).
(A) '−17', (B) '1', (C) '−1', (D) '17'
Answer:","","","","","","","","","","","","","","","","","","","","","","feedback_imgs/Correct.png"
"call-function","18","395792","0.0-4.0-0.3","2vll9ku1bv0sco8","6669e7470edffb0d8da619c2","67b62c430b9240ccd8986e70","67b63828dd8c64fd5d745533","4","","","","","","defer","What is the greatest common factor of 36 and 90?","[""6"",""18"",""36"",""180""]","B","B","modiste","","B","272","algLinUCB_0.9","diff-topics","elementary_mathematics","The following are multiple choice questions about high_school_mathematics.
Colton and his dad bought a gallon of paint that cost $13. They also bought 2 brushes that cost $9 each. What was the total cost, not including tax, of the brushes and the paint they bought?
(A) $22, (B) $24, (C) $31, (D) $35
Answer: C
Solve for y. y – 2 + 3y = 10
(A) 2, (B) 3, (C) 4, (D) 5
Answer: B
Solve 3 over 2 * w = 66.
(A) 33, (B) 44, (C) 88, (D) 99
Answer: B
Write 5.875 as a mixed number or fraction in simplest form.
(A) 5 and 8 over 9, (B) 5 and 7 over 8, (C) 7 over 8, (D) 5 and 87 over 105
Answer: B
Solve the equation 124 = m + 34.
(A) 158, (B) 90, (C) 88, (D) 4,216
Answer: B
Zelma buys p pounds of bananas for 40 cents per pound. She pays the clerk with a twenty-dollar bill. The clerk subtracts the total cost of the bananas from the twenty-dollar bill to determine the amount of change to give Zelma. Which expression represents the amount of change Zelma should receive?
(A) p - 20, (B) 20 - 40p, (C) 20 - 0.40p, (D) 0.40p - 20
Answer: C
Please answer the following question with just the correct option (A, B, C, or D) without any explanation or additional text.
What is the greatest common factor of 36 and 90?
(A) '6', (B) '18', (C) '36', (D) '180'
Answer:","","","","","","","","","","","","","","","","","","","","","",""
"survey-html-form","19","431987","0.0-4.0-1.3","2vll9ku1bv0sco8","6669e7470edffb0d8da619c2","67b62c430b9240ccd8986e70","67b63828dd8c64fd5d745533","4","36193.30000001192","","","{""mcAnswer"":""B""}","","","What is the greatest common factor of 36 and 90?","[""6"",""18"",""36"",""180""]","B","B","modiste","","B","272","algLinUCB_0.9","diff-topics","elementary_mathematics","The following are multiple choice questions about high_school_mathematics.
Colton and his dad bought a gallon of paint that cost $13. They also bought 2 brushes that cost $9 each. What was the total cost, not including tax, of the brushes and the paint they bought?
(A) $22, (B) $24, (C) $31, (D) $35
Answer: C
Solve for y. y – 2 + 3y = 10
(A) 2, (B) 3, (C) 4, (D) 5
Answer: B
Solve 3 over 2 * w = 66.
(A) 33, (B) 44, (C) 88, (D) 99
Answer: B
Write 5.875 as a mixed number or fraction in simplest form.
(A) 5 and 8 over 9, (B) 5 and 7 over 8, (C) 7 over 8, (D) 5 and 87 over 105
Answer: B
Solve the equation 124 = m + 34.
(A) 158, (B) 90, (C) 88, (D) 4,216
Answer: B
Zelma buys p pounds of bananas for 40 cents per pound. She pays the clerk with a twenty-dollar bill. The clerk subtracts the total cost of the bananas from the twenty-dollar bill to determine the amount of change to give Zelma. Which expression represents the amount of change Zelma should receive?
(A) p - 20, (B) 20 - 40p, (C) 20 - 0.40p, (D) 0.40p - 20
Answer: C
Please answer the following question with just the correct option (A, B, C, or D) without any explanation or additional text.
What is the greatest common factor of 36 and 90?
(A) '6', (B) '18', (C) '36', (D) '180'
Answer:","","","","","","","","","","","","","","","","","","","","","",""
"","","","","","","","","","","","","","","","","","","","","","","","","","","","B","","","","","","","","","","","","","","","","","","","","",""
"","","","","","","","","","","","","","","","","","","","","","","","","","","","","false","117","-1","B","true","true","defer","[]","false","0","false","0","{""elementary_mathematics"":[""40/50"",""31/50"",""6/7""],""high_school_mathematics"":[""27/50"",""22/51"",""3 / 5""],""college_mathematics"":[""22/50"",""26/50"",""2/6""]}","{""college_mathematics"":true,""high_school_mathematics"":false,""elementary_mathematics"":false}","You should attempt this problem by yourself","null","null","null","null","true",""
"image-keyboard-response","20","433502","0.0-4.0-2.3","2vll9ku1bv0sco8","6669e7470edffb0d8da619c2","67b62c430b9240ccd8986e70","67b63828dd8c64fd5d745533","4","null","","","null","","","What is the greatest common factor of 36 and 90?","[""6"",""18"",""36"",""180""]","B","B","modiste","","B","272","algLinUCB_0.9","diff-topics","elementary_mathematics","The following are multiple choice questions about high_school_mathematics.
Colton and his dad bought a gallon of paint that cost $13. They also bought 2 brushes that cost $9 each. What was the total cost, not including tax, of the brushes and the paint they bought?
(A) $22, (B) $24, (C) $31, (D) $35
Answer: C
Solve for y. y – 2 + 3y = 10
(A) 2, (B) 3, (C) 4, (D) 5
Answer: B
Solve 3 over 2 * w = 66.
(A) 33, (B) 44, (C) 88, (D) 99
Answer: B
Write 5.875 as a mixed number or fraction in simplest form.
(A) 5 and 8 over 9, (B) 5 and 7 over 8, (C) 7 over 8, (D) 5 and 87 over 105
Answer: B
Solve the equation 124 = m + 34.
(A) 158, (B) 90, (C) 88, (D) 4,216
Answer: B
Zelma buys p pounds of bananas for 40 cents per pound. She pays the clerk with a twenty-dollar bill. The clerk subtracts the total cost of the bananas from the twenty-dollar bill to determine the amount of change to give Zelma. Which expression represents the amount of change Zelma should receive?
(A) p - 20, (B) 20 - 40p, (C) 20 - 0.40p, (D) 0.40p - 20
Answer: C
Please answer the following question with just the correct option (A, B, C, or D) without any explanation or additional text.
What is the greatest common factor of 36 and 90?
(A) '6', (B) '18', (C) '36', (D) '180'
Answer:","","","","","","","","","","","","","","","","","","","","","","feedback_imgs/Correct.png"
"call-function","21","433503","0.0-4.0-0.4","2vll9ku1bv0sco8","6669e7470edffb0d8da619c2","67b62c430b9240ccd8986e70","67b63828dd8c64fd5d745533","4","","","","","","defer","When the graph of a certain function f(x) is shifted 2 units to the right and stretched vertically by a factor of 2 (meaning that all y-coordinates are doubled), the resulting figure is identical to the original graph. Given that f(0)=0.1, what is f(10)?","[""0.01"",""1"",""32"",""3.2""]","B","D","modiste","","D","253","algLinUCB_0.9","diff-topics","high_school_mathematics","The following are multiple choice questions about high_school_mathematics.
Colton and his dad bought a gallon of paint that cost $13. They also bought 2 brushes that cost $9 each. What was the total cost, not including tax, of the brushes and the paint they bought?
(A) $22, (B) $24, (C) $31, (D) $35
Answer: C
Solve for y. y – 2 + 3y = 10
(A) 2, (B) 3, (C) 4, (D) 5
Answer: B
Solve 3 over 2 * w = 66.
(A) 33, (B) 44, (C) 88, (D) 99
Answer: B
Write 5.875 as a mixed number or fraction in simplest form.
(A) 5 and 8 over 9, (B) 5 and 7 over 8, (C) 7 over 8, (D) 5 and 87 over 105
Answer: B
Solve the equation 124 = m + 34.
(A) 158, (B) 90, (C) 88, (D) 4,216
Answer: B
Zelma buys p pounds of bananas for 40 cents per pound. She pays the clerk with a twenty-dollar bill. The clerk subtracts the total cost of the bananas from the twenty-dollar bill to determine the amount of change to give Zelma. Which expression represents the amount of change Zelma should receive?
(A) p - 20, (B) 20 - 40p, (C) 20 - 0.40p, (D) 0.40p - 20
Answer: C
Please answer the following question with just the correct option (A, B, C, or D) without any explanation or additional text.
When the graph of a certain function f(x) is shifted 2 units to the right and stretched vertically by a factor of 2 (meaning that all y-coordinates are doubled), the resulting figure is identical to the original graph. Given that f(0)=0.1, what is f(10)?
(A) '0.01', (B) '1', (C) '32', (D) '3.2'
Answer:","","","","","","","","","","","","","","","","","","","","","",""
"survey-html-form","22","512731","0.0-4.0-1.4","2vll9ku1bv0sco8","6669e7470edffb0d8da619c2","67b62c430b9240ccd8986e70","67b63828dd8c64fd5d745533","4","79225.40000003576","","","{""mcAnswer"":""B""}","","","When the graph of a certain function f(x) is shifted 2 units to the right and stretched vertically by a factor of 2 (meaning that all y-coordinates are doubled), the resulting figure is identical to the original graph. Given that f(0)=0.1, what is f(10)?","[""0.01"",""1"",""32"",""3.2""]","B","D","modiste","","D","253","algLinUCB_0.9","diff-topics","high_school_mathematics","The following are multiple choice questions about high_school_mathematics.
Colton and his dad bought a gallon of paint that cost $13. They also bought 2 brushes that cost $9 each. What was the total cost, not including tax, of the brushes and the paint they bought?
(A) $22, (B) $24, (C) $31, (D) $35
Answer: C
Solve for y. y – 2 + 3y = 10
(A) 2, (B) 3, (C) 4, (D) 5
Answer: B
Solve 3 over 2 * w = 66.
(A) 33, (B) 44, (C) 88, (D) 99
Answer: B
Write 5.875 as a mixed number or fraction in simplest form.
(A) 5 and 8 over 9, (B) 5 and 7 over 8, (C) 7 over 8, (D) 5 and 87 over 105
Answer: B
Solve the equation 124 = m + 34.
(A) 158, (B) 90, (C) 88, (D) 4,216
Answer: B
Zelma buys p pounds of bananas for 40 cents per pound. She pays the clerk with a twenty-dollar bill. The clerk subtracts the total cost of the bananas from the twenty-dollar bill to determine the amount of change to give Zelma. Which expression represents the amount of change Zelma should receive?
(A) p - 20, (B) 20 - 40p, (C) 20 - 0.40p, (D) 0.40p - 20
Answer: C
Please answer the following question with just the correct option (A, B, C, or D) without any explanation or additional text.
When the graph of a certain function f(x) is shifted 2 units to the right and stretched vertically by a factor of 2 (meaning that all y-coordinates are doubled), the resulting figure is identical to the original graph. Given that f(0)=0.1, what is f(10)?
(A) '0.01', (B) '1', (C) '32', (D) '3.2'
Answer:","","","","","","","","","","","","","","","","","","","","","",""
"","","","","","","","","","","","","","","","","","","","","","","","","","","","B","","","","","","","","","","","","","","","","","","","","",""
"","","","","","","","","","","","","","","","","","","","","","","","","","","","","false","117","-1","B","false","false","defer","[]","false","0","false","0","{""elementary_mathematics"":[""40/50"",""31/50"",""6/7""],""high_school_mathematics"":[""27/50"",""22/51"",""3/6""],""college_mathematics"":[""22/50"",""26/50"",""2/6""]}","{""college_mathematics"":true,""high_school_mathematics"":true,""elementary_mathematics"":false}","You should attempt this problem by yourself","null","null","null","null","true",""
"image-keyboard-response","23","514247","0.0-4.0-2.4","2vll9ku1bv0sco8","6669e7470edffb0d8da619c2","67b62c430b9240ccd8986e70","67b63828dd8c64fd5d745533","4","null","","","null","","","When the graph of a certain function f(x) is shifted 2 units to the right and stretched vertically by a factor of 2 (meaning that all y-coordinates are doubled), the resulting figure is identical to the original graph. Given that f(0)=0.1, what is f(10)?","[""0.01"",""1"",""32"",""3.2""]","B","D","modiste","","D","253","algLinUCB_0.9","diff-topics","high_school_mathematics","The following are multiple choice questions about high_school_mathematics.
Colton and his dad bought a gallon of paint that cost $13. They also bought 2 brushes that cost $9 each. What was the total cost, not including tax, of the brushes and the paint they bought?
(A) $22, (B) $24, (C) $31, (D) $35
Answer: C
Solve for y. y – 2 + 3y = 10
(A) 2, (B) 3, (C) 4, (D) 5
Answer: B
Solve 3 over 2 * w = 66.
(A) 33, (B) 44, (C) 88, (D) 99
Answer: B
Write 5.875 as a mixed number or fraction in simplest form.
(A) 5 and 8 over 9, (B) 5 and 7 over 8, (C) 7 over 8, (D) 5 and 87 over 105
Answer: B
Solve the equation 124 = m + 34.
(A) 158, (B) 90, (C) 88, (D) 4,216
Answer: B
Zelma buys p pounds of bananas for 40 cents per pound. She pays the clerk with a twenty-dollar bill. The clerk subtracts the total cost of the bananas from the twenty-dollar bill to determine the amount of change to give Zelma. Which expression represents the amount of change Zelma should receive?
(A) p - 20, (B) 20 - 40p, (C) 20 - 0.40p, (D) 0.40p - 20
Answer: C
Please answer the following question with just the correct option (A, B, C, or D) without any explanation or additional text.
When the graph of a certain function f(x) is shifted 2 units to the right and stretched vertically by a factor of 2 (meaning that all y-coordinates are doubled), the resulting figure is identical to the original graph. Given that f(0)=0.1, what is f(10)?
(A) '0.01', (B) '1', (C) '32', (D) '3.2'
Answer:","","","","","","","","","","","","","","","","","","","","","","feedback_imgs/Incorrect.png"
"call-function","24","514247","0.0-4.0-0.5","2vll9ku1bv0sco8","6669e7470edffb0d8da619c2","67b62c430b9240ccd8986e70","67b63828dd8c64fd5d745533","4","","","","","","defer","Given that a and b are real numbers such that -3leq aleq1 and -2leq bleq 4, and values for a and b are chosen at random, what is the probability that the product acdot b is positive? Express your answer as a common fraction.","[""5/12"",""5/11"",""7/12"",""5/17""]","A","A","modiste","","A","259","algLinUCB_0.9","diff-topics","high_school_mathematics","The following are multiple choice questions about high_school_mathematics.
Colton and his dad bought a gallon of paint that cost $13. They also bought 2 brushes that cost $9 each. What was the total cost, not including tax, of the brushes and the paint they bought?
(A) $22, (B) $24, (C) $31, (D) $35
Answer: C
Solve for y. y – 2 + 3y = 10
(A) 2, (B) 3, (C) 4, (D) 5
Answer: B
Solve 3 over 2 * w = 66.
(A) 33, (B) 44, (C) 88, (D) 99
Answer: B
Write 5.875 as a mixed number or fraction in simplest form.
(A) 5 and 8 over 9, (B) 5 and 7 over 8, (C) 7 over 8, (D) 5 and 87 over 105
Answer: B
Solve the equation 124 = m + 34.
(A) 158, (B) 90, (C) 88, (D) 4,216
Answer: B
Zelma buys p pounds of bananas for 40 cents per pound. She pays the clerk with a twenty-dollar bill. The clerk subtracts the total cost of the bananas from the twenty-dollar bill to determine the amount of change to give Zelma. Which expression represents the amount of change Zelma should receive?
(A) p - 20, (B) 20 - 40p, (C) 20 - 0.40p, (D) 0.40p - 20
Answer: C
Please answer the following question with just the correct option (A, B, C, or D) without any explanation or additional text.
Given that a and b are real numbers such that -3leq aleq1 and -2leq bleq 4, and values for a and b are chosen at random, what is the probability that the product acdot b is positive? Express your answer as a common fraction.
(A) '5/12', (B) '5/11', (C) '7/12', (D) '5/17'
Answer:","","","","","","","","","","true","2","","","","","","","","","","",""
"survey-html-form","25","536835","0.0-4.0-1.5","2vll9ku1bv0sco8","6669e7470edffb0d8da619c2","67b62c430b9240ccd8986e70","67b63828dd8c64fd5d745533","4","22585","","","{""mcAnswer"":""A""}","","","Given that a and b are real numbers such that -3leq aleq1 and -2leq bleq 4, and values for a and b are chosen at random, what is the probability that the product acdot b is positive? Express your answer as a common fraction.","[""5/12"",""5/11"",""7/12"",""5/17""]","A","A","modiste","","A","259","algLinUCB_0.9","diff-topics","high_school_mathematics","The following are multiple choice questions about high_school_mathematics.
Colton and his dad bought a gallon of paint that cost $13. They also bought 2 brushes that cost $9 each. What was the total cost, not including tax, of the brushes and the paint they bought?
(A) $22, (B) $24, (C) $31, (D) $35
Answer: C
Solve for y. y – 2 + 3y = 10
(A) 2, (B) 3, (C) 4, (D) 5
Answer: B
Solve 3 over 2 * w = 66.
(A) 33, (B) 44, (C) 88, (D) 99
Answer: B
Write 5.875 as a mixed number or fraction in simplest form.
(A) 5 and 8 over 9, (B) 5 and 7 over 8, (C) 7 over 8, (D) 5 and 87 over 105
Answer: B
Solve the equation 124 = m + 34.
(A) 158, (B) 90, (C) 88, (D) 4,216
Answer: B
Zelma buys p pounds of bananas for 40 cents per pound. She pays the clerk with a twenty-dollar bill. The clerk subtracts the total cost of the bananas from the twenty-dollar bill to determine the amount of change to give Zelma. Which expression represents the amount of change Zelma should receive?
(A) p - 20, (B) 20 - 40p, (C) 20 - 0.40p, (D) 0.40p - 20
Answer: C
Please answer the following question with just the correct option (A, B, C, or D) without any explanation or additional text.
Given that a and b are real numbers such that -3leq aleq1 and -2leq bleq 4, and values for a and b are chosen at random, what is the probability that the product acdot b is positive? Express your answer as a common fraction.
(A) '5/12', (B) '5/11', (C) '7/12', (D) '5/17'
Answer:","","","","","","","","","","","","","","","","","","","","","",""
"","","","","","","","","","","","","","","","","","","","","","","","","","","","A","","","","","","","","","","","","","","","","","","","","",""
"","","","","","","","","","","","","","","","","","","","","","","","","","","","","false","120","-1","A","true","true","defer","[]","true","2","false","0","{""elementary_mathematics"":[""40/50"",""31/50"",""6/7""],""high_school_mathematics"":[""28/51"",""22/51"",""3/6""],""college_mathematics"":[""22/50"",""26/50"",""2/6""]}","{""college_mathematics"":true,""high_school_mathematics"":false,""elementary_mathematics"":false}","You were wrong by yourself on high_school_mathematics last time. You should outsource this problem to a human agent","null","false","null","true","null",""
"image-keyboard-response","26","538342","0.0-4.0-2.5","2vll9ku1bv0sco8","6669e7470edffb0d8da619c2","67b62c430b9240ccd8986e70","67b63828dd8c64fd5d745533","4","null","","","null","","","Given that a and b are real numbers such that -3leq aleq1 and -2leq bleq 4, and values for a and b are chosen at random, what is the probability that the product acdot b is positive? Express your answer as a common fraction.","[""5/12"",""5/11"",""7/12"",""5/17""]","A","A","modiste","","A","259","algLinUCB_0.9","diff-topics","high_school_mathematics","The following are multiple choice questions about high_school_mathematics.
Colton and his dad bought a gallon of paint that cost $13. They also bought 2 brushes that cost $9 each. What was the total cost, not including tax, of the brushes and the paint they bought?
(A) $22, (B) $24, (C) $31, (D) $35
Answer: C
Solve for y. y – 2 + 3y = 10
(A) 2, (B) 3, (C) 4, (D) 5
Answer: B
Solve 3 over 2 * w = 66.
(A) 33, (B) 44, (C) 88, (D) 99
Answer: B
Write 5.875 as a mixed number or fraction in simplest form.
(A) 5 and 8 over 9, (B) 5 and 7 over 8, (C) 7 over 8, (D) 5 and 87 over 105
Answer: B
Solve the equation 124 = m + 34.
(A) 158, (B) 90, (C) 88, (D) 4,216
Answer: B
Zelma buys p pounds of bananas for 40 cents per pound. She pays the clerk with a twenty-dollar bill. The clerk subtracts the total cost of the bananas from the twenty-dollar bill to determine the amount of change to give Zelma. Which expression represents the amount of change Zelma should receive?
(A) p - 20, (B) 20 - 40p, (C) 20 - 0.40p, (D) 0.40p - 20
Answer: C
Please answer the following question with just the correct option (A, B, C, or D) without any explanation or additional text.
Given that a and b are real numbers such that -3leq aleq1 and -2leq bleq 4, and values for a and b are chosen at random, what is the probability that the product acdot b is positive? Express your answer as a common fraction.
(A) '5/12', (B) '5/11', (C) '7/12', (D) '5/17'
Answer:","","","","","","","","","","","","","","","","","","","","","","feedback_imgs/Correct.png"
"call-function","27","538343","0.0-4.0-0.6","2vll9ku1bv0sco8","6669e7470edffb0d8da619c2","67b62c430b9240ccd8986e70","67b63828dd8c64fd5d745533","4","","","","","","defer","Which of the following sets has the greatest cardinality?","[""R"",""The set of all functions from Z to Z"",""The set of all functions from R to {0, 1}"",""The set of all finite subsets of R""]","C","C","modiste","","C","280","algLinUCB_0.9","diff-topics","college_mathematics","The following are multiple choice questions about high_school_mathematics.
Colton and his dad bought a gallon of paint that cost $13. They also bought 2 brushes that cost $9 each. What was the total cost, not including tax, of the brushes and the paint they bought?
(A) $22, (B) $24, (C) $31, (D) $35
Answer: C
Solve for y. y – 2 + 3y = 10
(A) 2, (B) 3, (C) 4, (D) 5
Answer: B
Solve 3 over 2 * w = 66.
(A) 33, (B) 44, (C) 88, (D) 99
Answer: B
Write 5.875 as a mixed number or fraction in simplest form.
(A) 5 and 8 over 9, (B) 5 and 7 over 8, (C) 7 over 8, (D) 5 and 87 over 105
Answer: B
Solve the equation 124 = m + 34.
(A) 158, (B) 90, (C) 88, (D) 4,216
Answer: B
Zelma buys p pounds of bananas for 40 cents per pound. She pays the clerk with a twenty-dollar bill. The clerk subtracts the total cost of the bananas from the twenty-dollar bill to determine the amount of change to give Zelma. Which expression represents the amount of change Zelma should receive?
(A) p - 20, (B) 20 - 40p, (C) 20 - 0.40p, (D) 0.40p - 20
Answer: C
Please answer the following question with just the correct option (A, B, C, or D) without any explanation or additional text.
Which of the following sets has the greatest cardinality?
(A) 'R', (B) 'The set of all functions from Z to Z', (C) 'The set of all functions from R to {0, 1}', (D) 'The set of all finite subsets of R'
Answer:","","","","","","","","","","","","true","2","","","","","","","","",""
"survey-html-form","28","610819","0.0-4.0-1.6","2vll9ku1bv0sco8","6669e7470edffb0d8da619c2","67b62c430b9240ccd8986e70","67b63828dd8c64fd5d745533","4","72473.39999997616","","","{""mcAnswer"":""C""}","","","Which of the following sets has the greatest cardinality?","[""R"",""The set of all functions from Z to Z"",""The set of all functions from R to {0, 1}"",""The set of all finite subsets of R""]","C","C","modiste","","C","280","algLinUCB_0.9","diff-topics","college_mathematics","The following are multiple choice questions about high_school_mathematics.
Colton and his dad bought a gallon of paint that cost $13. They also bought 2 brushes that cost $9 each. What was the total cost, not including tax, of the brushes and the paint they bought?
(A) $22, (B) $24, (C) $31, (D) $35
Answer: C
Solve for y. y – 2 + 3y = 10
(A) 2, (B) 3, (C) 4, (D) 5
Answer: B
Solve 3 over 2 * w = 66.
(A) 33, (B) 44, (C) 88, (D) 99
Answer: B
Write 5.875 as a mixed number or fraction in simplest form.
(A) 5 and 8 over 9, (B) 5 and 7 over 8, (C) 7 over 8, (D) 5 and 87 over 105
Answer: B
Solve the equation 124 = m + 34.
(A) 158, (B) 90, (C) 88, (D) 4,216
Answer: B
Zelma buys p pounds of bananas for 40 cents per pound. She pays the clerk with a twenty-dollar bill. The clerk subtracts the total cost of the bananas from the twenty-dollar bill to determine the amount of change to give Zelma. Which expression represents the amount of change Zelma should receive?
(A) p - 20, (B) 20 - 40p, (C) 20 - 0.40p, (D) 0.40p - 20
Answer: C
Please answer the following question with just the correct option (A, B, C, or D) without any explanation or additional text.
Which of the following sets has the greatest cardinality?
(A) 'R', (B) 'The set of all functions from Z to Z', (C) 'The set of all functions from R to {0, 1}', (D) 'The set of all finite subsets of R'
Answer:","","","","","","","","","","","","","","","","","","","","","",""
"","","","","","","","","","","","","","","","","","","","","","","","","","","","C","","","","","","","","","","","","","","","","","","","","",""
"","","","","","","","","","","","","","","","","","","","","","","","","","","","","false","127","-1","C","true","true","defer","[]","false","0","true","2","{""elementary_mathematics"":[""40/50"",""31/50"",""6/7""],""high_school_mathematics"":[""28/51"",""22/51"",""3/6""],""college_mathematics"":[""22/50"",""27/51"",""2/6""]}","{""college_mathematics"":false,""high_school_mathematics"":false,""elementary_mathematics"":false}","You were wrong by yourself on college_mathematics last time. You should outsource this problem to the AI agent","false","null","true","null","null",""
"image-keyboard-response","29","612328","0.0-4.0-2.6","2vll9ku1bv0sco8","6669e7470edffb0d8da619c2","67b62c430b9240ccd8986e70","67b63828dd8c64fd5d745533","4","null","","","null","","","Which of the following sets has the greatest cardinality?","[""R"",""The set of all functions from Z to Z"",""The set of all functions from R to {0, 1}"",""The set of all finite subsets of R""]","C","C","modiste","","C","280","algLinUCB_0.9","diff-topics","college_mathematics","The following are multiple choice questions about high_school_mathematics.
Colton and his dad bought a gallon of paint that cost $13. They also bought 2 brushes that cost $9 each. What was the total cost, not including tax, of the brushes and the paint they bought?
(A) $22, (B) $24, (C) $31, (D) $35
Answer: C
Solve for y. y – 2 + 3y = 10
(A) 2, (B) 3, (C) 4, (D) 5
Answer: B
Solve 3 over 2 * w = 66.
(A) 33, (B) 44, (C) 88, (D) 99
Answer: B
Write 5.875 as a mixed number or fraction in simplest form.
(A) 5 and 8 over 9, (B) 5 and 7 over 8, (C) 7 over 8, (D) 5 and 87 over 105
Answer: B
Solve the equation 124 = m + 34.
(A) 158, (B) 90, (C) 88, (D) 4,216
Answer: B
Zelma buys p pounds of bananas for 40 cents per pound. She pays the clerk with a twenty-dollar bill. The clerk subtracts the total cost of the bananas from the twenty-dollar bill to determine the amount of change to give Zelma. Which expression represents the amount of change Zelma should receive?
(A) p - 20, (B) 20 - 40p, (C) 20 - 0.40p, (D) 0.40p - 20
Answer: C
Please answer the following question with just the correct option (A, B, C, or D) without any explanation or additional text.
Which of the following sets has the greatest cardinality?
(A) 'R', (B) 'The set of all functions from Z to Z', (C) 'The set of all functions from R to {0, 1}', (D) 'The set of all finite subsets of R'
Answer:","","","","","","","","","","","","","","","","","","","","","","feedback_imgs/Correct.png"
"call-function","30","612329","0.0-4.0-0.7","2vll9ku1bv0sco8","6669e7470edffb0d8da619c2","67b62c430b9240ccd8986e70","67b63828dd8c64fd5d745533","4","","","","","","defer","The map x -> axa^2 of a group G into itself is a homomorphism if and only if","[""G is abelian"",""G = {e}"",""a^3 = e"",""a^2 = a""]","A","A","modiste","","C","289","algLinUCB_0.9","diff-topics","college_mathematics","The following are multiple choice questions about high_school_mathematics.
Colton and his dad bought a gallon of paint that cost $13. They also bought 2 brushes that cost $9 each. What was the total cost, not including tax, of the brushes and the paint they bought?
(A) $22, (B) $24, (C) $31, (D) $35
Answer: C
Solve for y. y – 2 + 3y = 10
(A) 2, (B) 3, (C) 4, (D) 5
Answer: B
Solve 3 over 2 * w = 66.
(A) 33, (B) 44, (C) 88, (D) 99
Answer: B
Write 5.875 as a mixed number or fraction in simplest form.
(A) 5 and 8 over 9, (B) 5 and 7 over 8, (C) 7 over 8, (D) 5 and 87 over 105
Answer: B
Solve the equation 124 = m + 34.
(A) 158, (B) 90, (C) 88, (D) 4,216
Answer: B
Zelma buys p pounds of bananas for 40 cents per pound. She pays the clerk with a twenty-dollar bill. The clerk subtracts the total cost of the bananas from the twenty-dollar bill to determine the amount of change to give Zelma. Which expression represents the amount of change Zelma should receive?
(A) p - 20, (B) 20 - 40p, (C) 20 - 0.40p, (D) 0.40p - 20
Answer: C
Please answer the following question with just the correct option (A, B, C, or D) without any explanation or additional text.
The map x -> axa^2 of a group G into itself is a homomorphism if and only if
(A) 'G is abelian', (B) 'G = {e}', (C) 'a^3 = e', (D) 'a^2 = a'
Answer:","","","","","","","","","","","","true","2","","","","","","","","",""
"survey-html-form","31","636515","0.0-4.0-1.7","2vll9ku1bv0sco8","6669e7470edffb0d8da619c2","67b62c430b9240ccd8986e70","67b63828dd8c64fd5d745533","4","24184.099999964237","","","{""mcAnswer"":""A""}","","","The map x -> axa^2 of a group G into itself is a homomorphism if and only if","[""G is abelian"",""G = {e}"",""a^3 = e"",""a^2 = a""]","A","A","modiste","","C","289","algLinUCB_0.9","diff-topics","college_mathematics","The following are multiple choice questions about high_school_mathematics.
Colton and his dad bought a gallon of paint that cost $13. They also bought 2 brushes that cost $9 each. What was the total cost, not including tax, of the brushes and the paint they bought?
(A) $22, (B) $24, (C) $31, (D) $35
Answer: C
Solve for y. y – 2 + 3y = 10
(A) 2, (B) 3, (C) 4, (D) 5
Answer: B
Solve 3 over 2 * w = 66.
(A) 33, (B) 44, (C) 88, (D) 99
Answer: B
Write 5.875 as a mixed number or fraction in simplest form.
(A) 5 and 8 over 9, (B) 5 and 7 over 8, (C) 7 over 8, (D) 5 and 87 over 105
Answer: B
Solve the equation 124 = m + 34.
(A) 158, (B) 90, (C) 88, (D) 4,216
Answer: B
Zelma buys p pounds of bananas for 40 cents per pound. She pays the clerk with a twenty-dollar bill. The clerk subtracts the total cost of the bananas from the twenty-dollar bill to determine the amount of change to give Zelma. Which expression represents the amount of change Zelma should receive?
(A) p - 20, (B) 20 - 40p, (C) 20 - 0.40p, (D) 0.40p - 20
Answer: C
Please answer the following question with just the correct option (A, B, C, or D) without any explanation or additional text.
The map x -> axa^2 of a group G into itself is a homomorphism if and only if
(A) 'G is abelian', (B) 'G = {e}', (C) 'a^3 = e', (D) 'a^2 = a'
Answer:","","","","","","","","","","","","","","","","","","","","","",""
"","","","","","","","","","","","","","","","","","","","","","","","","","","","A","","","","","","","","","","","","","","","","","","","","",""
"","","","","","","","","","","","","","","","","","","","","","","","","","","","","false","124","-1","A","false","false","defer","[]","false","0","true","2","{""elementary_mathematics"":[""40/50"",""31/50"",""6/7""],""high_school_mathematics"":[""28/51"",""22/51"",""3/6""],""college_mathematics"":[""22/50"",""27/52"",""2/6""]}","{""college_mathematics"":false,""high_school_mathematics"":false,""elementary_mathematics"":false}","You should outsource this problem to the AI agent","false","null","true","null","null",""
"image-keyboard-response","32","638042","0.0-4.0-2.7","2vll9ku1bv0sco8","6669e7470edffb0d8da619c2","67b62c430b9240ccd8986e70","67b63828dd8c64fd5d745533","4","null","","","null","","","The map x -> axa^2 of a group G into itself is a homomorphism if and only if","[""G is abelian"",""G = {e}"",""a^3 = e"",""a^2 = a""]","A","A","modiste","","C","289","algLinUCB_0.9","diff-topics","college_mathematics","The following are multiple choice questions about high_school_mathematics.
Colton and his dad bought a gallon of paint that cost $13. They also bought 2 brushes that cost $9 each. What was the total cost, not including tax, of the brushes and the paint they bought?
(A) $22, (B) $24, (C) $31, (D) $35
Answer: C
Solve for y. y – 2 + 3y = 10
(A) 2, (B) 3, (C) 4, (D) 5
Answer: B
Solve 3 over 2 * w = 66.
(A) 33, (B) 44, (C) 88, (D) 99
Answer: B
Write 5.875 as a mixed number or fraction in simplest form.
(A) 5 and 8 over 9, (B) 5 and 7 over 8, (C) 7 over 8, (D) 5 and 87 over 105
Answer: B
Solve the equation 124 = m + 34.
(A) 158, (B) 90, (C) 88, (D) 4,216
Answer: B
Zelma buys p pounds of bananas for 40 cents per pound. She pays the clerk with a twenty-dollar bill. The clerk subtracts the total cost of the bananas from the twenty-dollar bill to determine the amount of change to give Zelma. Which expression represents the amount of change Zelma should receive?
(A) p - 20, (B) 20 - 40p, (C) 20 - 0.40p, (D) 0.40p - 20
Answer: C
Please answer the following question with just the correct option (A, B, C, or D) without any explanation or additional text.
The map x -> axa^2 of a group G into itself is a homomorphism if and only if
(A) 'G is abelian', (B) 'G = {e}', (C) 'a^3 = e', (D) 'a^2 = a'
Answer:","","","","","","","","","","","","","","","","","","","","","","feedback_imgs/Incorrect.png"
"call-function","33","638043","0.0-4.0-0.8","2vll9ku1bv0sco8","6669e7470edffb0d8da619c2","67b62c430b9240ccd8986e70","67b63828dd8c64fd5d745533","4","","","","","","defer","What is the greatest common factor of 42 and 84?","[""7"",""21"",""42"",""84""]","B","C","modiste","","C","274","algLinUCB_0.9","diff-topics","elementary_mathematics","The following are multiple choice questions about high_school_mathematics.
Colton and his dad bought a gallon of paint that cost $13. They also bought 2 brushes that cost $9 each. What was the total cost, not including tax, of the brushes and the paint they bought?
(A) $22, (B) $24, (C) $31, (D) $35
Answer: C
Solve for y. y – 2 + 3y = 10
(A) 2, (B) 3, (C) 4, (D) 5
Answer: B
Solve 3 over 2 * w = 66.
(A) 33, (B) 44, (C) 88, (D) 99
Answer: B
Write 5.875 as a mixed number or fraction in simplest form.
(A) 5 and 8 over 9, (B) 5 and 7 over 8, (C) 7 over 8, (D) 5 and 87 over 105
Answer: B
Solve the equation 124 = m + 34.
(A) 158, (B) 90, (C) 88, (D) 4,216
Answer: B
Zelma buys p pounds of bananas for 40 cents per pound. She pays the clerk with a twenty-dollar bill. The clerk subtracts the total cost of the bananas from the twenty-dollar bill to determine the amount of change to give Zelma. Which expression represents the amount of change Zelma should receive?
(A) p - 20, (B) 20 - 40p, (C) 20 - 0.40p, (D) 0.40p - 20
Answer: C
Please answer the following question with just the correct option (A, B, C, or D) without any explanation or additional text.
What is the greatest common factor of 42 and 84?
(A) '7', (B) '21', (C) '42', (D) '84'
Answer:","","","","","","","","","","","","","","","","","","","","","",""
"survey-html-form","34","656427","0.0-4.0-1.8","2vll9ku1bv0sco8","6669e7470edffb0d8da619c2","67b62c430b9240ccd8986e70","67b63828dd8c64fd5d745533","4","18383.100000023842","","","{""mcAnswer"":""C""}","","","What is the greatest common factor of 42 and 84?","[""7"",""21"",""42"",""84""]","B","C","modiste","","C","274","algLinUCB_0.9","diff-topics","elementary_mathematics","The following are multiple choice questions about high_school_mathematics.
Colton and his dad bought a gallon of paint that cost $13. They also bought 2 brushes that cost $9 each. What was the total cost, not including tax, of the brushes and the paint they bought?
(A) $22, (B) $24, (C) $31, (D) $35
Answer: C
Solve for y. y – 2 + 3y = 10
(A) 2, (B) 3, (C) 4, (D) 5
Answer: B
Solve 3 over 2 * w = 66.
(A) 33, (B) 44, (C) 88, (D) 99
Answer: B
Write 5.875 as a mixed number or fraction in simplest form.
(A) 5 and 8 over 9, (B) 5 and 7 over 8, (C) 7 over 8, (D) 5 and 87 over 105
Answer: B
Solve the equation 124 = m + 34.
(A) 158, (B) 90, (C) 88, (D) 4,216
Answer: B
Zelma buys p pounds of bananas for 40 cents per pound. She pays the clerk with a twenty-dollar bill. The clerk subtracts the total cost of the bananas from the twenty-dollar bill to determine the amount of change to give Zelma. Which expression represents the amount of change Zelma should receive?
(A) p - 20, (B) 20 - 40p, (C) 20 - 0.40p, (D) 0.40p - 20
Answer: C
Please answer the following question with just the correct option (A, B, C, or D) without any explanation or additional text.
What is the greatest common factor of 42 and 84?
(A) '7', (B) '21', (C) '42', (D) '84'
Answer:","","","","","","","","","","","","","","","","","","","","","",""
"","","","","","","","","","","","","","","","","","","","","","","","","","","","C","","","","","","","","","","","","","","","","","","","","",""
"","","","","","","","","","","","","","","","","","","","","","","","","","","","","false","134","-1","B","true","false","defer","[]","false","0","false","0","{""elementary_mathematics"":[""40/50"",""31/50"",""7/8""],""high_school_mathematics"":[""28/51"",""22/51"",""3/6""],""college_mathematics"":[""22/50"",""27/52"",""2/6""]}","{""college_mathematics"":false,""high_school_mathematics"":false,""elementary_mathematics"":false}","You should attempt this problem by yourself","null","null","null","null","true",""
"image-keyboard-response","35","657941","0.0-4.0-2.8","2vll9ku1bv0sco8","6669e7470edffb0d8da619c2","67b62c430b9240ccd8986e70","67b63828dd8c64fd5d745533","4","null","","","null","","","What is the greatest common factor of 42 and 84?","[""7"",""21"",""42"",""84""]","B","C","modiste","","C","274","algLinUCB_0.9","diff-topics","elementary_mathematics","The following are multiple choice questions about high_school_mathematics.
Colton and his dad bought a gallon of paint that cost $13. They also bought 2 brushes that cost $9 each. What was the total cost, not including tax, of the brushes and the paint they bought?
(A) $22, (B) $24, (C) $31, (D) $35
Answer: C
Solve for y. y – 2 + 3y = 10
(A) 2, (B) 3, (C) 4, (D) 5
Answer: B
Solve 3 over 2 * w = 66.
(A) 33, (B) 44, (C) 88, (D) 99
Answer: B
Write 5.875 as a mixed number or fraction in simplest form.
(A) 5 and 8 over 9, (B) 5 and 7 over 8, (C) 7 over 8, (D) 5 and 87 over 105
Answer: B
Solve the equation 124 = m + 34.
(A) 158, (B) 90, (C) 88, (D) 4,216
Answer: B
Zelma buys p pounds of bananas for 40 cents per pound. She pays the clerk with a twenty-dollar bill. The clerk subtracts the total cost of the bananas from the twenty-dollar bill to determine the amount of change to give Zelma. Which expression represents the amount of change Zelma should receive?
(A) p - 20, (B) 20 - 40p, (C) 20 - 0.40p, (D) 0.40p - 20
Answer: C
Please answer the following question with just the correct option (A, B, C, or D) without any explanation or additional text.
What is the greatest common factor of 42 and 84?
(A) '7', (B) '21', (C) '42', (D) '84'
Answer:","","","","","","","","","","","","","","","","","","","","","","feedback_imgs/Correct.png"
"call-function","36","657941","0.0-4.0-0.9","2vll9ku1bv0sco8","6669e7470edffb0d8da619c2","67b62c430b9240ccd8986e70","67b63828dd8c64fd5d745533","4","","","","","","defer","Simplify k-3/2 + 3k+1+3k+1/2.","[""3k+1"",""5k"",""3k"",""1""]","B","B","modiste","","B","250","algLinUCB_0.9","diff-topics","high_school_mathematics","The following are multiple choice questions about high_school_mathematics.
Colton and his dad bought a gallon of paint that cost $13. They also bought 2 brushes that cost $9 each. What was the total cost, not including tax, of the brushes and the paint they bought?
(A) $22, (B) $24, (C) $31, (D) $35
Answer: C
Solve for y. y – 2 + 3y = 10
(A) 2, (B) 3, (C) 4, (D) 5
Answer: B
Solve 3 over 2 * w = 66.
(A) 33, (B) 44, (C) 88, (D) 99
Answer: B
Write 5.875 as a mixed number or fraction in simplest form.
(A) 5 and 8 over 9, (B) 5 and 7 over 8, (C) 7 over 8, (D) 5 and 87 over 105
Answer: B
Solve the equation 124 = m + 34.
(A) 158, (B) 90, (C) 88, (D) 4,216
Answer: B
Zelma buys p pounds of bananas for 40 cents per pound. She pays the clerk with a twenty-dollar bill. The clerk subtracts the total cost of the bananas from the twenty-dollar bill to determine the amount of change to give Zelma. Which expression represents the amount of change Zelma should receive?
(A) p - 20, (B) 20 - 40p, (C) 20 - 0.40p, (D) 0.40p - 20
Answer: C
Please answer the following question with just the correct option (A, B, C, or D) without any explanation or additional text.
Simplify k-3/2 + 3k+1+3k+1/2.
(A) '3k+1', (B) '5k', (C) '3k', (D) '1'
Answer:","","","","","","","","","","","","","","","","","","","","","",""
"survey-html-form","37","698779","0.0-4.0-1.9","2vll9ku1bv0sco8","6669e7470edffb0d8da619c2","67b62c430b9240ccd8986e70","67b63828dd8c64fd5d745533","4","40836.30000001192","","","{""mcAnswer"":""A""}","","","Simplify k-3/2 + 3k+1+3k+1/2.","[""3k+1"",""5k"",""3k"",""1""]","B","B","modiste","","B","250","algLinUCB_0.9","diff-topics","high_school_mathematics","The following are multiple choice questions about high_school_mathematics.
Colton and his dad bought a gallon of paint that cost $13. They also bought 2 brushes that cost $9 each. What was the total cost, not including tax, of the brushes and the paint they bought?
(A) $22, (B) $24, (C) $31, (D) $35
Answer: C
Solve for y. y – 2 + 3y = 10
(A) 2, (B) 3, (C) 4, (D) 5
Answer: B
Solve 3 over 2 * w = 66.
(A) 33, (B) 44, (C) 88, (D) 99
Answer: B
Write 5.875 as a mixed number or fraction in simplest form.
(A) 5 and 8 over 9, (B) 5 and 7 over 8, (C) 7 over 8, (D) 5 and 87 over 105
Answer: B
Solve the equation 124 = m + 34.
(A) 158, (B) 90, (C) 88, (D) 4,216
Answer: B
Zelma buys p pounds of bananas for 40 cents per pound. She pays the clerk with a twenty-dollar bill. The clerk subtracts the total cost of the bananas from the twenty-dollar bill to determine the amount of change to give Zelma. Which expression represents the amount of change Zelma should receive?
(A) p - 20, (B) 20 - 40p, (C) 20 - 0.40p, (D) 0.40p - 20
Answer: C
Please answer the following question with just the correct option (A, B, C, or D) without any explanation or additional text.
Simplify k-3/2 + 3k+1+3k+1/2.
(A) '3k+1', (B) '5k', (C) '3k', (D) '1'
Answer:","","","","","","","","","","","","","","","","","","","","","",""
"","","","","","","","","","","","","","","","","","","","","","","","","","","","A","","","","","","","","","","","","","","","","","","","","",""
"","","","","","","","","","","","","","","","","","","","","","","","","","","","","false","134","-1","B","false","true","defer","[]","false","0","false","0","{""elementary_mathematics"":[""40/50"",""31/50"",""7/8""],""high_school_mathematics"":[""28/51"",""22/51"",""3/7""],""college_mathematics"":[""22/50"",""27/52"",""2/6""]}","{""college_mathematics"":false,""high_school_mathematics"":true,""elementary_mathematics"":false}","You should outsource this problem to a human agent","null","null","null","false","null",""
"image-keyboard-response","38","700280","0.0-4.0-2.9","2vll9ku1bv0sco8","6669e7470edffb0d8da619c2","67b62c430b9240ccd8986e70","67b63828dd8c64fd5d745533","4","null","","","null","","","Simplify k-3/2 + 3k+1+3k+1/2.","[""3k+1"",""5k"",""3k"",""1""]","B","B","modiste","","B","250","algLinUCB_0.9","diff-topics","high_school_mathematics","The following are multiple choice questions about high_school_mathematics.
Colton and his dad bought a gallon of paint that cost $13. They also bought 2 brushes that cost $9 each. What was the total cost, not including tax, of the brushes and the paint they bought?
(A) $22, (B) $24, (C) $31, (D) $35
Answer: C
Solve for y. y – 2 + 3y = 10
(A) 2, (B) 3, (C) 4, (D) 5
Answer: B
Solve 3 over 2 * w = 66.
(A) 33, (B) 44, (C) 88, (D) 99
Answer: B
Write 5.875 as a mixed number or fraction in simplest form.
(A) 5 and 8 over 9, (B) 5 and 7 over 8, (C) 7 over 8, (D) 5 and 87 over 105
Answer: B
Solve the equation 124 = m + 34.
(A) 158, (B) 90, (C) 88, (D) 4,216
Answer: B
Zelma buys p pounds of bananas for 40 cents per pound. She pays the clerk with a twenty-dollar bill. The clerk subtracts the total cost of the bananas from the twenty-dollar bill to determine the amount of change to give Zelma. Which expression represents the amount of change Zelma should receive?
(A) p - 20, (B) 20 - 40p, (C) 20 - 0.40p, (D) 0.40p - 20
Answer: C
Please answer the following question with just the correct option (A, B, C, or D) without any explanation or additional text.
Simplify k-3/2 + 3k+1+3k+1/2.
(A) '3k+1', (B) '5k', (C) '3k', (D) '1'
Answer:","","","","","","","","","","","","","","","","","","","","","","feedback_imgs/Incorrect.png"
"call-function","39","700281","0.0-4.0-0.10","2vll9ku1bv0sco8","6669e7470edffb0d8da619c2","67b62c430b9240ccd8986e70","67b63828dd8c64fd5d745533","4","","","","","","defer","Find the remainder when 25^1059 is divided by 23.","[""11"",""13"",""8"",""5""]","C","A","modiste","","C","247","algLinUCB_0.9","diff-topics","high_school_mathematics","The following are multiple choice questions about high_school_mathematics.
Colton and his dad bought a gallon of paint that cost $13. They also bought 2 brushes that cost $9 each. What was the total cost, not including tax, of the brushes and the paint they bought?
(A) $22, (B) $24, (C) $31, (D) $35
Answer: C
Solve for y. y – 2 + 3y = 10
(A) 2, (B) 3, (C) 4, (D) 5
Answer: B
Solve 3 over 2 * w = 66.
(A) 33, (B) 44, (C) 88, (D) 99
Answer: B
Write 5.875 as a mixed number or fraction in simplest form.
(A) 5 and 8 over 9, (B) 5 and 7 over 8, (C) 7 over 8, (D) 5 and 87 over 105
Answer: B
Solve the equation 124 = m + 34.
(A) 158, (B) 90, (C) 88, (D) 4,216
Answer: B
Zelma buys p pounds of bananas for 40 cents per pound. She pays the clerk with a twenty-dollar bill. The clerk subtracts the total cost of the bananas from the twenty-dollar bill to determine the amount of change to give Zelma. Which expression represents the amount of change Zelma should receive?
(A) p - 20, (B) 20 - 40p, (C) 20 - 0.40p, (D) 0.40p - 20
Answer: C
Please answer the following question with just the correct option (A, B, C, or D) without any explanation or additional text.
Find the remainder when 25^1059 is divided by 23.
(A) '11', (B) '13', (C) '8', (D) '5'
Answer:","","","","","","","","","","true","2","","","","","","","","","","",""
"survey-html-form","40","742283","0.0-4.0-1.10","2vll9ku1bv0sco8","6669e7470edffb0d8da619c2","67b62c430b9240ccd8986e70","67b63828dd8c64fd5d745533","4","41999.19999998808","","","{""mcAnswer"":""A""}","","","Find the remainder when 25^1059 is divided by 23.","[""11"",""13"",""8"",""5""]","C","A","modiste","","C","247","algLinUCB_0.9","diff-topics","high_school_mathematics","The following are multiple choice questions about high_school_mathematics.
Colton and his dad bought a gallon of paint that cost $13. They also bought 2 brushes that cost $9 each. What was the total cost, not including tax, of the brushes and the paint they bought?
(A) $22, (B) $24, (C) $31, (D) $35
Answer: C
Solve for y. y – 2 + 3y = 10
(A) 2, (B) 3, (C) 4, (D) 5
Answer: B
Solve 3 over 2 * w = 66.
(A) 33, (B) 44, (C) 88, (D) 99
Answer: B
Write 5.875 as a mixed number or fraction in simplest form.
(A) 5 and 8 over 9, (B) 5 and 7 over 8, (C) 7 over 8, (D) 5 and 87 over 105
Answer: B
Solve the equation 124 = m + 34.
(A) 158, (B) 90, (C) 88, (D) 4,216
Answer: B
Zelma buys p pounds of bananas for 40 cents per pound. She pays the clerk with a twenty-dollar bill. The clerk subtracts the total cost of the bananas from the twenty-dollar bill to determine the amount of change to give Zelma. Which expression represents the amount of change Zelma should receive?
(A) p - 20, (B) 20 - 40p, (C) 20 - 0.40p, (D) 0.40p - 20
Answer: C
Please answer the following question with just the correct option (A, B, C, or D) without any explanation or additional text.
Find the remainder when 25^1059 is divided by 23.
(A) '11', (B) '13', (C) '8', (D) '5'
Answer:","","","","","","","","","","","","","","","","","","","","","",""
"","","","","","","","","","","","","","","","","","","","","","","","","","","","A","","","","","","","","","","","","","","","","","","","","",""
"","","","","","","","","","","","","","","","","","","","","","","","","","","","","false","127","-1","C","false","true","defer","[]","true","2","false","0","{""elementary_mathematics"":[""40/50"",""31/50"",""7/8""],""high_school_mathematics"":[""28/52"",""22/51"",""3/7""],""college_mathematics"":[""22/50"",""27/52"",""2/6""]}","{""college_mathematics"":false,""high_school_mathematics"":false,""elementary_mathematics"":false}","You were wrong by yourself on high_school_mathematics last time. You should outsource this problem to a human agent","null","false","null","true","null",""
"image-keyboard-response","41","743796","0.0-4.0-2.10","2vll9ku1bv0sco8","6669e7470edffb0d8da619c2","67b62c430b9240ccd8986e70","67b63828dd8c64fd5d745533","4","null","","","null","","","Find the remainder when 25^1059 is divided by 23.","[""11"",""13"",""8"",""5""]","C","A","modiste","","C","247","algLinUCB_0.9","diff-topics","high_school_mathematics","The following are multiple choice questions about high_school_mathematics.
Colton and his dad bought a gallon of paint that cost $13. They also bought 2 brushes that cost $9 each. What was the total cost, not including tax, of the brushes and the paint they bought?
(A) $22, (B) $24, (C) $31, (D) $35
Answer: C
Solve for y. y – 2 + 3y = 10
(A) 2, (B) 3, (C) 4, (D) 5
Answer: B
Solve 3 over 2 * w = 66.
(A) 33, (B) 44, (C) 88, (D) 99
Answer: B
Write 5.875 as a mixed number or fraction in simplest form.
(A) 5 and 8 over 9, (B) 5 and 7 over 8, (C) 7 over 8, (D) 5 and 87 over 105
Answer: B
Solve the equation 124 = m + 34.
(A) 158, (B) 90, (C) 88, (D) 4,216
Answer: B
Zelma buys p pounds of bananas for 40 cents per pound. She pays the clerk with a twenty-dollar bill. The clerk subtracts the total cost of the bananas from the twenty-dollar bill to determine the amount of change to give Zelma. Which expression represents the amount of change Zelma should receive?
(A) p - 20, (B) 20 - 40p, (C) 20 - 0.40p, (D) 0.40p - 20
Answer: C
Please answer the following question with just the correct option (A, B, C, or D) without any explanation or additional text.
Find the remainder when 25^1059 is divided by 23.
(A) '11', (B) '13', (C) '8', (D) '5'
Answer:","","","","","","","","","","","","","","","","","","","","","","feedback_imgs/Incorrect.png"
"call-function","42","743796","0.0-4.0-0.11","2vll9ku1bv0sco8","6669e7470edffb0d8da619c2","67b62c430b9240ccd8986e70","67b63828dd8c64fd5d745533","4","","","","","","defer","An equilateral triangle has sides of 12 inches. What is the approximate area of the triangle?","[""62"",""72"",""84"",""112""]","B","A","modiste","","A","252","algLinUCB_0.9","diff-topics","high_school_mathematics","The following are multiple choice questions about high_school_mathematics.
Colton and his dad bought a gallon of paint that cost $13. They also bought 2 brushes that cost $9 each. What was the total cost, not including tax, of the brushes and the paint they bought?
(A) $22, (B) $24, (C) $31, (D) $35
Answer: C
Solve for y. y – 2 + 3y = 10
(A) 2, (B) 3, (C) 4, (D) 5
Answer: B
Solve 3 over 2 * w = 66.
(A) 33, (B) 44, (C) 88, (D) 99
Answer: B
Write 5.875 as a mixed number or fraction in simplest form.
(A) 5 and 8 over 9, (B) 5 and 7 over 8, (C) 7 over 8, (D) 5 and 87 over 105
Answer: B
Solve the equation 124 = m + 34.
(A) 158, (B) 90, (C) 88, (D) 4,216
Answer: B
Zelma buys p pounds of bananas for 40 cents per pound. She pays the clerk with a twenty-dollar bill. The clerk subtracts the total cost of the bananas from the twenty-dollar bill to determine the amount of change to give Zelma. Which expression represents the amount of change Zelma should receive?
(A) p - 20, (B) 20 - 40p, (C) 20 - 0.40p, (D) 0.40p - 20
Answer: C
Please answer the following question with just the correct option (A, B, C, or D) without any explanation or additional text.
An equilateral triangle has sides of 12 inches. What is the approximate area of the triangle?
(A) '62', (B) '72', (C) '84', (D) '112'
Answer:","","","","","","","","","","","","","","","","","","","","","",""
"survey-html-form","43","785530","0.0-4.0-1.11","2vll9ku1bv0sco8","6669e7470edffb0d8da619c2","67b62c430b9240ccd8986e70","67b63828dd8c64fd5d745533","4","41731.80000001192","","","{""mcAnswer"":""B""}","","","An equilateral triangle has sides of 12 inches. What is the approximate area of the triangle?","[""62"",""72"",""84"",""112""]","B","A","modiste","","A","252","algLinUCB_0.9","diff-topics","high_school_mathematics","The following are multiple choice questions about high_school_mathematics.
Colton and his dad bought a gallon of paint that cost $13. They also bought 2 brushes that cost $9 each. What was the total cost, not including tax, of the brushes and the paint they bought?
(A) $22, (B) $24, (C) $31, (D) $35
Answer: C
Solve for y. y – 2 + 3y = 10
(A) 2, (B) 3, (C) 4, (D) 5
Answer: B
Solve 3 over 2 * w = 66.
(A) 33, (B) 44, (C) 88, (D) 99
Answer: B
Write 5.875 as a mixed number or fraction in simplest form.
(A) 5 and 8 over 9, (B) 5 and 7 over 8, (C) 7 over 8, (D) 5 and 87 over 105
Answer: B
Solve the equation 124 = m + 34.
(A) 158, (B) 90, (C) 88, (D) 4,216
Answer: B
Zelma buys p pounds of bananas for 40 cents per pound. She pays the clerk with a twenty-dollar bill. The clerk subtracts the total cost of the bananas from the twenty-dollar bill to determine the amount of change to give Zelma. Which expression represents the amount of change Zelma should receive?
(A) p - 20, (B) 20 - 40p, (C) 20 - 0.40p, (D) 0.40p - 20
Answer: C
Please answer the following question with just the correct option (A, B, C, or D) without any explanation or additional text.
An equilateral triangle has sides of 12 inches. What is the approximate area of the triangle?
(A) '62', (B) '72', (C) '84', (D) '112'
Answer:","","","","","","","","","","","","","","","","","","","","","",""
"","","","","","","","","","","","","","","","","","","","","","","","","","","","B","","","","","","","","","","","","","","","","","","","","",""
"","","","","","","","","","","","","","","","","","","","","","","","","","","","","false","127","-1","B","false","false","defer","[]","false","0","false","0","{""elementary_mathematics"":[""40/50"",""31/50"",""7/8""],""high_school_mathematics"":[""28/52"",""22/51"",""3/8""],""college_mathematics"":[""22/50"",""27/52"",""2/6""]}","{""college_mathematics"":false,""high_school_mathematics"":true,""elementary_mathematics"":false}","You should outsource this problem to a human agent","null","null","null","false","null",""
"image-keyboard-response","44","787046","0.0-4.0-2.11","2vll9ku1bv0sco8","6669e7470edffb0d8da619c2","67b62c430b9240ccd8986e70","67b63828dd8c64fd5d745533","4","null","","","null","","","An equilateral triangle has sides of 12 inches. What is the approximate area of the triangle?","[""62"",""72"",""84"",""112""]","B","A","modiste","","A","252","algLinUCB_0.9","diff-topics","high_school_mathematics","The following are multiple choice questions about high_school_mathematics.
Colton and his dad bought a gallon of paint that cost $13. They also bought 2 brushes that cost $9 each. What was the total cost, not including tax, of the brushes and the paint they bought?
(A) $22, (B) $24, (C) $31, (D) $35
Answer: C
Solve for y. y – 2 + 3y = 10
(A) 2, (B) 3, (C) 4, (D) 5
Answer: B
Solve 3 over 2 * w = 66.
(A) 33, (B) 44, (C) 88, (D) 99
Answer: B
Write 5.875 as a mixed number or fraction in simplest form.
(A) 5 and 8 over 9, (B) 5 and 7 over 8, (C) 7 over 8, (D) 5 and 87 over 105
Answer: B
Solve the equation 124 = m + 34.
(A) 158, (B) 90, (C) 88, (D) 4,216
Answer: B
Zelma buys p pounds of bananas for 40 cents per pound. She pays the clerk with a twenty-dollar bill. The clerk subtracts the total cost of the bananas from the twenty-dollar bill to determine the amount of change to give Zelma. Which expression represents the amount of change Zelma should receive?
(A) p - 20, (B) 20 - 40p, (C) 20 - 0.40p, (D) 0.40p - 20
Answer: C
Please answer the following question with just the correct option (A, B, C, or D) without any explanation or additional text.
An equilateral triangle has sides of 12 inches. What is the approximate area of the triangle?
(A) '62', (B) '72', (C) '84', (D) '112'
Answer:","","","","","","","","","","","","","","","","","","","","","","feedback_imgs/Incorrect.png"
"call-function","45","787046","0.0-4.0-0.12","2vll9ku1bv0sco8","6669e7470edffb0d8da619c2","67b62c430b9240ccd8986e70","67b63828dd8c64fd5d745533","4","","","","","","defer","If f : (0, 1) → (0, 1], then which of the following could be TRUE?
I. f is one-to-one and onto.
II. The image of f is compact.
III. f is continuous, one-to-one, and onto.","[""I only"",""II only"",""I and II only"",""I and III only""]","C","B","modiste","","C","291","algLinUCB_0.9","diff-topics","college_mathematics","The following are multiple choice questions about high_school_mathematics.
Colton and his dad bought a gallon of paint that cost $13. They also bought 2 brushes that cost $9 each. What was the total cost, not including tax, of the brushes and the paint they bought?
(A) $22, (B) $24, (C) $31, (D) $35
Answer: C
Solve for y. y – 2 + 3y = 10
(A) 2, (B) 3, (C) 4, (D) 5
Answer: B
Solve 3 over 2 * w = 66.
(A) 33, (B) 44, (C) 88, (D) 99
Answer: B
Write 5.875 as a mixed number or fraction in simplest form.
(A) 5 and 8 over 9, (B) 5 and 7 over 8, (C) 7 over 8, (D) 5 and 87 over 105
Answer: B
Solve the equation 124 = m + 34.
(A) 158, (B) 90, (C) 88, (D) 4,216
Answer: B
Zelma buys p pounds of bananas for 40 cents per pound. She pays the clerk with a twenty-dollar bill. The clerk subtracts the total cost of the bananas from the twenty-dollar bill to determine the amount of change to give Zelma. Which expression represents the amount of change Zelma should receive?
(A) p - 20, (B) 20 - 40p, (C) 20 - 0.40p, (D) 0.40p - 20
Answer: C
Please answer the following question with just the correct option (A, B, C, or D) without any explanation or additional text.
If f : (0, 1) → (0, 1], then which of the following could be TRUE?
I. f is one-to-one and onto.
II. The image of f is compact.
III. f is continuous, one-to-one, and onto.
(A) 'I only', (B) 'II only', (C) 'I and II only', (D) 'I and III only'
Answer:","","","","","","","","","","","","true","2","","","","","","","","",""
"survey-html-form","46","824955","0.0-4.0-1.12","2vll9ku1bv0sco8","6669e7470edffb0d8da619c2","67b62c430b9240ccd8986e70","67b63828dd8c64fd5d745533","4","37908.19999998808","","","{""mcAnswer"":""C""}","","","If f : (0, 1) → (0, 1], then which of the following could be TRUE?
I. f is one-to-one and onto.
II. The image of f is compact.
III. f is continuous, one-to-one, and onto.","[""I only"",""II only"",""I and II only"",""I and III only""]","C","B","modiste","","C","291","algLinUCB_0.9","diff-topics","college_mathematics","The following are multiple choice questions about high_school_mathematics.
Colton and his dad bought a gallon of paint that cost $13. They also bought 2 brushes that cost $9 each. What was the total cost, not including tax, of the brushes and the paint they bought?
(A) $22, (B) $24, (C) $31, (D) $35
Answer: C
Solve for y. y – 2 + 3y = 10
(A) 2, (B) 3, (C) 4, (D) 5
Answer: B
Solve 3 over 2 * w = 66.
(A) 33, (B) 44, (C) 88, (D) 99
Answer: B
Write 5.875 as a mixed number or fraction in simplest form.
(A) 5 and 8 over 9, (B) 5 and 7 over 8, (C) 7 over 8, (D) 5 and 87 over 105
Answer: B
Solve the equation 124 = m + 34.
(A) 158, (B) 90, (C) 88, (D) 4,216
Answer: B
Zelma buys p pounds of bananas for 40 cents per pound. She pays the clerk with a twenty-dollar bill. The clerk subtracts the total cost of the bananas from the twenty-dollar bill to determine the amount of change to give Zelma. Which expression represents the amount of change Zelma should receive?
(A) p - 20, (B) 20 - 40p, (C) 20 - 0.40p, (D) 0.40p - 20
Answer: C
Please answer the following question with just the correct option (A, B, C, or D) without any explanation or additional text.
If f : (0, 1) → (0, 1], then which of the following could be TRUE?
I. f is one-to-one and onto.
II. The image of f is compact.
III. f is continuous, one-to-one, and onto.
(A) 'I only', (B) 'II only', (C) 'I and II only', (D) 'I and III only'
Answer:","","","","","","","","","","","","","","","","","","","","","",""
"","","","","","","","","","","","","","","","","","","","","","","","","","","","C","","","","","","","","","","","","","","","","","","","","",""
"","","","","","","","","","","","","","","","","","","","","","","","","","","","","false","134","-1","C","true","true","defer","[]","false","0","true","2","{""elementary_mathematics"":[""40/50"",""31/50"",""7/8""],""high_school_mathematics"":[""28/52"",""22/51"",""3/8""],""college_mathematics"":[""22/50"",""28/53"",""2/6""]}","{""college_mathematics"":false,""high_school_mathematics"":true,""elementary_mathematics"":false}","You should outsource this problem to the AI agent","false","null","true","null","null",""
"image-keyboard-response","47","826463","0.0-4.0-2.12","2vll9ku1bv0sco8","6669e7470edffb0d8da619c2","67b62c430b9240ccd8986e70","67b63828dd8c64fd5d745533","4","null","","","null","","","If f : (0, 1) → (0, 1], then which of the following could be TRUE?
I. f is one-to-one and onto.
II. The image of f is compact.
III. f is continuous, one-to-one, and onto.","[""I only"",""II only"",""I and II only"",""I and III only""]","C","B","modiste","","C","291","algLinUCB_0.9","diff-topics","college_mathematics","The following are multiple choice questions about high_school_mathematics.
Colton and his dad bought a gallon of paint that cost $13. They also bought 2 brushes that cost $9 each. What was the total cost, not including tax, of the brushes and the paint they bought?
(A) $22, (B) $24, (C) $31, (D) $35
Answer: C
Solve for y. y – 2 + 3y = 10
(A) 2, (B) 3, (C) 4, (D) 5
Answer: B
Solve 3 over 2 * w = 66.
(A) 33, (B) 44, (C) 88, (D) 99
Answer: B
Write 5.875 as a mixed number or fraction in simplest form.
(A) 5 and 8 over 9, (B) 5 and 7 over 8, (C) 7 over 8, (D) 5 and 87 over 105
Answer: B
Solve the equation 124 = m + 34.
(A) 158, (B) 90, (C) 88, (D) 4,216
Answer: B
Zelma buys p pounds of bananas for 40 cents per pound. She pays the clerk with a twenty-dollar bill. The clerk subtracts the total cost of the bananas from the twenty-dollar bill to determine the amount of change to give Zelma. Which expression represents the amount of change Zelma should receive?
(A) p - 20, (B) 20 - 40p, (C) 20 - 0.40p, (D) 0.40p - 20
Answer: C
Please answer the following question with just the correct option (A, B, C, or D) without any explanation or additional text.
If f : (0, 1) → (0, 1], then which of the following could be TRUE?
I. f is one-to-one and onto.
II. The image of f is compact.
III. f is continuous, one-to-one, and onto.
(A) 'I only', (B) 'II only', (C) 'I and II only', (D) 'I and III only'
Answer:","","","","","","","","","","","","","","","","","","","","","","feedback_imgs/Correct.png"
"call-function","48","826464","0.0-4.0-0.13","2vll9ku1bv0sco8","6669e7470edffb0d8da619c2","67b62c430b9240ccd8986e70","67b63828dd8c64fd5d745533","4","","","","","","defer","Find -d1/-3cdotc1/~frac{1{-3}~}.","[""1"",""-1"",""0"",""2""]","B","B","modiste","","B","257","algLinUCB_0.9","diff-topics","high_school_mathematics","The following are multiple choice questions about high_school_mathematics.
Colton and his dad bought a gallon of paint that cost $13. They also bought 2 brushes that cost $9 each. What was the total cost, not including tax, of the brushes and the paint they bought?
(A) $22, (B) $24, (C) $31, (D) $35
Answer: C
Solve for y. y – 2 + 3y = 10
(A) 2, (B) 3, (C) 4, (D) 5
Answer: B
Solve 3 over 2 * w = 66.
(A) 33, (B) 44, (C) 88, (D) 99
Answer: B
Write 5.875 as a mixed number or fraction in simplest form.
(A) 5 and 8 over 9, (B) 5 and 7 over 8, (C) 7 over 8, (D) 5 and 87 over 105
Answer: B
Solve the equation 124 = m + 34.
(A) 158, (B) 90, (C) 88, (D) 4,216
Answer: B
Zelma buys p pounds of bananas for 40 cents per pound. She pays the clerk with a twenty-dollar bill. The clerk subtracts the total cost of the bananas from the twenty-dollar bill to determine the amount of change to give Zelma. Which expression represents the amount of change Zelma should receive?
(A) p - 20, (B) 20 - 40p, (C) 20 - 0.40p, (D) 0.40p - 20
Answer: C
Please answer the following question with just the correct option (A, B, C, or D) without any explanation or additional text.
Find -d1/-3cdotc1/~frac{1{-3}~}.
(A) '1', (B) '-1', (C) '0', (D) '2'
Answer:","","","","","","","","","","true","2","","","","","","","","","","",""
"survey-html-form","49","851235","0.0-4.0-1.13","2vll9ku1bv0sco8","6669e7470edffb0d8da619c2","67b62c430b9240ccd8986e70","67b63828dd8c64fd5d745533","4","24770.30000001192","","","{""mcAnswer"":""B""}","","","Find -d1/-3cdotc1/~frac{1{-3}~}.","[""1"",""-1"",""0"",""2""]","B","B","modiste","","B","257","algLinUCB_0.9","diff-topics","high_school_mathematics","The following are multiple choice questions about high_school_mathematics.
Colton and his dad bought a gallon of paint that cost $13. They also bought 2 brushes that cost $9 each. What was the total cost, not including tax, of the brushes and the paint they bought?
(A) $22, (B) $24, (C) $31, (D) $35
Answer: C
Solve for y. y – 2 + 3y = 10
(A) 2, (B) 3, (C) 4, (D) 5
Answer: B
Solve 3 over 2 * w = 66.
(A) 33, (B) 44, (C) 88, (D) 99
Answer: B
Write 5.875 as a mixed number or fraction in simplest form.
(A) 5 and 8 over 9, (B) 5 and 7 over 8, (C) 7 over 8, (D) 5 and 87 over 105
Answer: B
Solve the equation 124 = m + 34.
(A) 158, (B) 90, (C) 88, (D) 4,216
Answer: B
Zelma buys p pounds of bananas for 40 cents per pound. She pays the clerk with a twenty-dollar bill. The clerk subtracts the total cost of the bananas from the twenty-dollar bill to determine the amount of change to give Zelma. Which expression represents the amount of change Zelma should receive?
(A) p - 20, (B) 20 - 40p, (C) 20 - 0.40p, (D) 0.40p - 20
Answer: C
Please answer the following question with just the correct option (A, B, C, or D) without any explanation or additional text.
Find -d1/-3cdotc1/~frac{1{-3}~}.
(A) '1', (B) '-1', (C) '0', (D) '2'
Answer:","","","","","","","","","","","","","","","","","","","","","",""
"","","","","","","","","","","","","","","","","","","","","","","","","","","","B","","","","","","","","","","","","","","","","","","","","",""
"","","","","","","","","","","","","","","","","","","","","","","","","","","","","false","137","-1","B","true","true","defer","[]","true","2","false","0","{""elementary_mathematics"":[""40/50"",""31/50"",""7/8""],""high_school_mathematics"":[""29/53"",""22/51"",""3/8""],""college_mathematics"":[""22/50"",""28/53"",""2/6""]}","{""college_mathematics"":false,""high_school_mathematics"":false,""elementary_mathematics"":false}","You were wrong by yourself on high_school_mathematics last time. You should outsource this problem to a human agent","null","false","null","true","null",""
"image-keyboard-response","50","852740","0.0-4.0-2.13","2vll9ku1bv0sco8","6669e7470edffb0d8da619c2","67b62c430b9240ccd8986e70","67b63828dd8c64fd5d745533","4","null","","","null","","","Find -d1/-3cdotc1/~frac{1{-3}~}.","[""1"",""-1"",""0"",""2""]","B","B","modiste","","B","257","algLinUCB_0.9","diff-topics","high_school_mathematics","The following are multiple choice questions about high_school_mathematics.
Colton and his dad bought a gallon of paint that cost $13. They also bought 2 brushes that cost $9 each. What was the total cost, not including tax, of the brushes and the paint they bought?
(A) $22, (B) $24, (C) $31, (D) $35
Answer: C
Solve for y. y – 2 + 3y = 10
(A) 2, (B) 3, (C) 4, (D) 5
Answer: B
Solve 3 over 2 * w = 66.
(A) 33, (B) 44, (C) 88, (D) 99
Answer: B
Write 5.875 as a mixed number or fraction in simplest form.
(A) 5 and 8 over 9, (B) 5 and 7 over 8, (C) 7 over 8, (D) 5 and 87 over 105
Answer: B
Solve the equation 124 = m + 34.
(A) 158, (B) 90, (C) 88, (D) 4,216
Answer: B
Zelma buys p pounds of bananas for 40 cents per pound. She pays the clerk with a twenty-dollar bill. The clerk subtracts the total cost of the bananas from the twenty-dollar bill to determine the amount of change to give Zelma. Which expression represents the amount of change Zelma should receive?
(A) p - 20, (B) 20 - 40p, (C) 20 - 0.40p, (D) 0.40p - 20
Answer: C
Please answer the following question with just the correct option (A, B, C, or D) without any explanation or additional text.
Find -d1/-3cdotc1/~frac{1{-3}~}.
(A) '1', (B) '-1', (C) '0', (D) '2'
Answer:","","","","","","","","","","","","","","","","","","","","","","feedback_imgs/Correct.png"
"call-function","51","852740","0.0-4.0-0.14","2vll9ku1bv0sco8","6669e7470edffb0d8da619c2","67b62c430b9240ccd8986e70","67b63828dd8c64fd5d745533","4","","","","","","defer","What is the value of y in the equation y/4 = 8?","[""2"",""4"",""12"",""32""]","D","D","modiste","","D","262","algLinUCB_0.9","diff-topics","elementary_mathematics","The following are multiple choice questions about high_school_mathematics.
Colton and his dad bought a gallon of paint that cost $13. They also bought 2 brushes that cost $9 each. What was the total cost, not including tax, of the brushes and the paint they bought?
(A) $22, (B) $24, (C) $31, (D) $35
Answer: C
Solve for y. y – 2 + 3y = 10
(A) 2, (B) 3, (C) 4, (D) 5
Answer: B
Solve 3 over 2 * w = 66.
(A) 33, (B) 44, (C) 88, (D) 99
Answer: B
Write 5.875 as a mixed number or fraction in simplest form.
(A) 5 and 8 over 9, (B) 5 and 7 over 8, (C) 7 over 8, (D) 5 and 87 over 105
Answer: B
Solve the equation 124 = m + 34.
(A) 158, (B) 90, (C) 88, (D) 4,216
Answer: B
Zelma buys p pounds of bananas for 40 cents per pound. She pays the clerk with a twenty-dollar bill. The clerk subtracts the total cost of the bananas from the twenty-dollar bill to determine the amount of change to give Zelma. Which expression represents the amount of change Zelma should receive?
(A) p - 20, (B) 20 - 40p, (C) 20 - 0.40p, (D) 0.40p - 20
Answer: C
Please answer the following question with just the correct option (A, B, C, or D) without any explanation or additional text.
What is the value of y in the equation y/4 = 8?
(A) '2', (B) '4', (C) '12', (D) '32'
Answer:","","","","","","","","","","","","","","","","","","","","","",""
"survey-html-form","52","863291","0.0-4.0-1.14","2vll9ku1bv0sco8","6669e7470edffb0d8da619c2","67b62c430b9240ccd8986e70","67b63828dd8c64fd5d745533","4","10550.199999988079","","","{""mcAnswer"":""D""}","","","What is the value of y in the equation y/4 = 8?","[""2"",""4"",""12"",""32""]","D","D","modiste","","D","262","algLinUCB_0.9","diff-topics","elementary_mathematics","The following are multiple choice questions about high_school_mathematics.
Colton and his dad bought a gallon of paint that cost $13. They also bought 2 brushes that cost $9 each. What was the total cost, not including tax, of the brushes and the paint they bought?
(A) $22, (B) $24, (C) $31, (D) $35
Answer: C
Solve for y. y – 2 + 3y = 10
(A) 2, (B) 3, (C) 4, (D) 5
Answer: B
Solve 3 over 2 * w = 66.
(A) 33, (B) 44, (C) 88, (D) 99
Answer: B
Write 5.875 as a mixed number or fraction in simplest form.
(A) 5 and 8 over 9, (B) 5 and 7 over 8, (C) 7 over 8, (D) 5 and 87 over 105
Answer: B
Solve the equation 124 = m + 34.
(A) 158, (B) 90, (C) 88, (D) 4,216
Answer: B
Zelma buys p pounds of bananas for 40 cents per pound. She pays the clerk with a twenty-dollar bill. The clerk subtracts the total cost of the bananas from the twenty-dollar bill to determine the amount of change to give Zelma. Which expression represents the amount of change Zelma should receive?
(A) p - 20, (B) 20 - 40p, (C) 20 - 0.40p, (D) 0.40p - 20
Answer: C
Please answer the following question with just the correct option (A, B, C, or D) without any explanation or additional text.
What is the value of y in the equation y/4 = 8?
(A) '2', (B) '4', (C) '12', (D) '32'
Answer:","","","","","","","","","","","","","","","","","","","","","",""
"","","","","","","","","","","","","","","","","","","","","","","","","","","","D","","","","","","","","","","","","","","","","","","","","",""
"","","","","","","","","","","","","","","","","","","","","","","","","","","","","false","147","-1","D","true","true","defer","[]","false","0","false","0","{""elementary_mathematics"":[""40/50"",""31/50"",""8/9""],""high_school_mathematics"":[""29/53"",""22/51"",""3/8""],""college_mathematics"":[""22/50"",""28/53"",""2/6""]}","{""college_mathematics"":false,""high_school_mathematics"":false,""elementary_mathematics"":false}","You should attempt this problem by yourself","null","null","null","null","true",""
"image-keyboard-response","53","864795","0.0-4.0-2.14","2vll9ku1bv0sco8","6669e7470edffb0d8da619c2","67b62c430b9240ccd8986e70","67b63828dd8c64fd5d745533","4","null","","","null","","","What is the value of y in the equation y/4 = 8?","[""2"",""4"",""12"",""32""]","D","D","modiste","","D","262","algLinUCB_0.9","diff-topics","elementary_mathematics","The following are multiple choice questions about high_school_mathematics.
Colton and his dad bought a gallon of paint that cost $13. They also bought 2 brushes that cost $9 each. What was the total cost, not including tax, of the brushes and the paint they bought?
(A) $22, (B) $24, (C) $31, (D) $35
Answer: C
Solve for y. y – 2 + 3y = 10
(A) 2, (B) 3, (C) 4, (D) 5
Answer: B
Solve 3 over 2 * w = 66.
(A) 33, (B) 44, (C) 88, (D) 99
Answer: B
Write 5.875 as a mixed number or fraction in simplest form.
(A) 5 and 8 over 9, (B) 5 and 7 over 8, (C) 7 over 8, (D) 5 and 87 over 105
Answer: B
Solve the equation 124 = m + 34.
(A) 158, (B) 90, (C) 88, (D) 4,216
Answer: B
Zelma buys p pounds of bananas for 40 cents per pound. She pays the clerk with a twenty-dollar bill. The clerk subtracts the total cost of the bananas from the twenty-dollar bill to determine the amount of change to give Zelma. Which expression represents the amount of change Zelma should receive?
(A) p - 20, (B) 20 - 40p, (C) 20 - 0.40p, (D) 0.40p - 20
Answer: C
Please answer the following question with just the correct option (A, B, C, or D) without any explanation or additional text.
What is the value of y in the equation y/4 = 8?
(A) '2', (B) '4', (C) '12', (D) '32'
Answer:","","","","","","","","","","","","","","","","","","","","","","feedback_imgs/Correct.png"
"call-function","54","864796","0.0-4.0-0.15","2vll9ku1bv0sco8","6669e7470edffb0d8da619c2","67b62c430b9240ccd8986e70","67b63828dd8c64fd5d745533","4","","","","","","defer","What is the supplement of a 40° angle?","[""50°"",""130°"",""140°"",""220°""]","C","C","modiste","","C","267","algLinUCB_0.9","diff-topics","elementary_mathematics","The following are multiple choice questions about high_school_mathematics.
Colton and his dad bought a gallon of paint that cost $13. They also bought 2 brushes that cost $9 each. What was the total cost, not including tax, of the brushes and the paint they bought?
(A) $22, (B) $24, (C) $31, (D) $35
Answer: C
Solve for y. y – 2 + 3y = 10
(A) 2, (B) 3, (C) 4, (D) 5
Answer: B
Solve 3 over 2 * w = 66.
(A) 33, (B) 44, (C) 88, (D) 99
Answer: B
Write 5.875 as a mixed number or fraction in simplest form.
(A) 5 and 8 over 9, (B) 5 and 7 over 8, (C) 7 over 8, (D) 5 and 87 over 105
Answer: B
Solve the equation 124 = m + 34.
(A) 158, (B) 90, (C) 88, (D) 4,216
Answer: B
Zelma buys p pounds of bananas for 40 cents per pound. She pays the clerk with a twenty-dollar bill. The clerk subtracts the total cost of the bananas from the twenty-dollar bill to determine the amount of change to give Zelma. Which expression represents the amount of change Zelma should receive?
(A) p - 20, (B) 20 - 40p, (C) 20 - 0.40p, (D) 0.40p - 20
Answer: C
Please answer the following question with just the correct option (A, B, C, or D) without any explanation or additional text.
What is the supplement of a 40° angle?
(A) '50°', (B) '130°', (C) '140°', (D) '220°'
Answer:","","","","","","","","","","","","","","","","","","","","","",""
"survey-html-form","55","878996","0.0-4.0-1.15","2vll9ku1bv0sco8","6669e7470edffb0d8da619c2","67b62c430b9240ccd8986e70","67b63828dd8c64fd5d745533","4","14197.599999964237","","","{""mcAnswer"":""C""}","","","What is the supplement of a 40° angle?","[""50°"",""130°"",""140°"",""220°""]","C","C","modiste","","C","267","algLinUCB_0.9","diff-topics","elementary_mathematics","The following are multiple choice questions about high_school_mathematics.
