"trial_type","trial_index","time_elapsed","internal_node_id","subject","prolific_id","study_id","session_id","condition","rt","url","view_history","response","question_order","value","question","options","llm_answer","population_answer","task","subj_id","label","example_id","variant","main_variant","topic","prompt","0","btn_clicked","score","timeToClick","modelPred","humanCorrect","modelCorrect","interfaceType","modelPredDist","human_support_used","human_support_clicks","llm_support_used","llm_support_clicks","recommendation_lists","incorrect_answers_by_category","recommendation","LLM_outsourcing_overridden","human_outsourcing_overridden","ai_orch_agreement","human_orch_agreement","self_orch_agreement","stimulus"
"pavlovia","0","904","0.0-0.0","7qhz4zy3zhjyfpo","","","","2","","","","","","","","","","","","","","","","","","","","","","","","","","","","","","","","","","","","","","","",""
"external-html","1","7895","0.0-1.0","7qhz4zy3zhjyfpo","","","","2","6890.300000011921","consent.html","","","","","","","","","","","","","","","","","","","","","","","","","","","","","","","","","","","","","",""
"instructions","2","17236","0.0-2.0-0.0","7qhz4zy3zhjyfpo","","","","2","9339.600000023842","","[{""page_index"":0,""viewing_time"":1231.3999999761581},{""page_index"":1,""viewing_time"":4208.100000023842},{""page_index"":2,""viewing_time"":625.1000000238419},{""page_index"":3,""viewing_time"":797.8999999761581},{""page_index"":4,""viewing_time"":479.30000001192093},{""page_index"":5,""viewing_time"":596.8999999761581},{""page_index"":6,""viewing_time"":663.4000000357628},{""page_index"":7,""viewing_time"":737}]","","","","","","","","","","","","","","","","","","","","","","","","","","","","","","","","","","","","",""
"survey-multi-choice","3","20097","0.0-2.0-1.0","7qhz4zy3zhjyfpo","","","","2","2858.199999988079","","","{""Q0"":""The answer to a mutliple choice question."",""Q1"":""Clicking on a radio button.""}","[0,1]","","","","","","","","","","","","","","","","","","","","","","","","","","","","","","","","","","",""
"instructions","4","23320","0.0-3.0","7qhz4zy3zhjyfpo","","","","2","3221.199999988079","","[{""page_index"":0,""viewing_time"":3220.699999988079}]","","","","","","","","","","","","","","","","","","","","","","","","","","","","","","","","","","","","",""
"call-function","5","23322","0.0-4.0-0.0","7qhz4zy3zhjyfpo","","","","2","","","","","","defer","Which situation can be represented by the fraction 20/8?","[""Leslie spent 20 dollars and 8 cents at a store. How is the amount of money Leslie spent written as a fraction?"",""Mr. Kramer's 8 grandchildren shared 20 crackers equally. How many crackers did each grandchild get?"",""Mitch bought 20 containers of flowers at a plant store. Each container had 8 flowers in it. How many flowers did Mitch buy?"",""Stamps are sold in booklets of 20 stamps. Donna used 8 stamps to send invitations for a party. How many booklets of stamps did Donna use to send her invitations?""]","B","B","modiste","","B","152","algLinUCB_0.9","diff-topics","elementary_mathematics","The following are multiple choice questions about high_school_mathematics.
Colton and his dad bought a gallon of paint that cost $13. They also bought 2 brushes that cost $9 each. What was the total cost, not including tax, of the brushes and the paint they bought?
(A) $22, (B) $24, (C) $31, (D) $35
Answer: C
Solve for y. y – 2 + 3y = 10
(A) 2, (B) 3, (C) 4, (D) 5
Answer: B
Solve 3 over 2 * w = 66.
(A) 33, (B) 44, (C) 88, (D) 99
Answer: B
Write 5.875 as a mixed number or fraction in simplest form.
(A) 5 and 8 over 9, (B) 5 and 7 over 8, (C) 7 over 8, (D) 5 and 87 over 105
Answer: B
Solve the equation 124 = m + 34.
(A) 158, (B) 90, (C) 88, (D) 4,216
Answer: B
Zelma buys p pounds of bananas for 40 cents per pound. She pays the clerk with a twenty-dollar bill. The clerk subtracts the total cost of the bananas from the twenty-dollar bill to determine the amount of change to give Zelma. Which expression represents the amount of change Zelma should receive?
(A) p - 20, (B) 20 - 40p, (C) 20 - 0.40p, (D) 0.40p - 20
Answer: C
Please answer the following question with just the correct option (A, B, C, or D) without any explanation or additional text.
Which situation can be represented by the fraction 20/8?
(A) 'Leslie spent 20 dollars and 8 cents at a store. How is the amount of money Leslie spent written as a fraction?', (B) 'Mr. Kramer’s 8 grandchildren shared 20 crackers equally. How many crackers did each grandchild get?', (C) 'Mitch bought 20 containers of flowers at a plant store. Each container had 8 flowers in it. How many flowers did Mitch buy?', (D) 'Stamps are sold in booklets of 20 stamps. Donna used 8 stamps to send invitations for a party. How many booklets of stamps did Donna use to send her invitations?'
Answer:","","","","","","","","","","","","","","","","","","","","","",""
"survey-html-form","6","36313","0.0-4.0-1.0","7qhz4zy3zhjyfpo","","","","2","12985.899999976158","","","{""mcAnswer"":""C""}","","","Which situation can be represented by the fraction 20/8?","[""Leslie spent 20 dollars and 8 cents at a store. How is the amount of money Leslie spent written as a fraction?"",""Mr. Kramer's 8 grandchildren shared 20 crackers equally. How many crackers did each grandchild get?"",""Mitch bought 20 containers of flowers at a plant store. Each container had 8 flowers in it. How many flowers did Mitch buy?"",""Stamps are sold in booklets of 20 stamps. Donna used 8 stamps to send invitations for a party. How many booklets of stamps did Donna use to send her invitations?""]","B","B","modiste","","B","152","algLinUCB_0.9","diff-topics","elementary_mathematics","The following are multiple choice questions about high_school_mathematics.
Colton and his dad bought a gallon of paint that cost $13. They also bought 2 brushes that cost $9 each. What was the total cost, not including tax, of the brushes and the paint they bought?
(A) $22, (B) $24, (C) $31, (D) $35
Answer: C
Solve for y. y – 2 + 3y = 10
(A) 2, (B) 3, (C) 4, (D) 5
Answer: B
Solve 3 over 2 * w = 66.
(A) 33, (B) 44, (C) 88, (D) 99
Answer: B
Write 5.875 as a mixed number or fraction in simplest form.
(A) 5 and 8 over 9, (B) 5 and 7 over 8, (C) 7 over 8, (D) 5 and 87 over 105
Answer: B
Solve the equation 124 = m + 34.
(A) 158, (B) 90, (C) 88, (D) 4,216
Answer: B
Zelma buys p pounds of bananas for 40 cents per pound. She pays the clerk with a twenty-dollar bill. The clerk subtracts the total cost of the bananas from the twenty-dollar bill to determine the amount of change to give Zelma. Which expression represents the amount of change Zelma should receive?
(A) p - 20, (B) 20 - 40p, (C) 20 - 0.40p, (D) 0.40p - 20
Answer: C
Please answer the following question with just the correct option (A, B, C, or D) without any explanation or additional text.
Which situation can be represented by the fraction 20/8?
(A) 'Leslie spent 20 dollars and 8 cents at a store. How is the amount of money Leslie spent written as a fraction?', (B) 'Mr. Kramer’s 8 grandchildren shared 20 crackers equally. How many crackers did each grandchild get?', (C) 'Mitch bought 20 containers of flowers at a plant store. Each container had 8 flowers in it. How many flowers did Mitch buy?', (D) 'Stamps are sold in booklets of 20 stamps. Donna used 8 stamps to send invitations for a party. How many booklets of stamps did Donna use to send her invitations?'
Answer:","","","","","","","","","","","","","","","","","","","","","",""
"","","","","","","","","","","","","","","","","","","","","","","","","","","","C","","","","","","","","","","","","","","","","","","","","",""
"","","","","","","","","","","","","","","","","","","","","","","","","","","","","false","100","-1","B","false","true","defer","[]","false","0","false","0","{""elementary_mathematics"":[""40/50"",""31/50"",""4/6""],""high_school_mathematics"":[""27/50"",""22/50"",""3 / 5""],""college_mathematics"":[""22/50"",""26/50"",""2 / 5""]}","{""elementary_mathematics"":true}","You should attempt this problem by yourself","null","null","null","null","true",""
"image-keyboard-response","7","37820","0.0-4.0-2.0","7qhz4zy3zhjyfpo","","","","2","null","","","null","","","Which situation can be represented by the fraction 20/8?","[""Leslie spent 20 dollars and 8 cents at a store. How is the amount of money Leslie spent written as a fraction?"",""Mr. Kramer's 8 grandchildren shared 20 crackers equally. How many crackers did each grandchild get?"",""Mitch bought 20 containers of flowers at a plant store. Each container had 8 flowers in it. How many flowers did Mitch buy?"",""Stamps are sold in booklets of 20 stamps. Donna used 8 stamps to send invitations for a party. How many booklets of stamps did Donna use to send her invitations?""]","B","B","modiste","","B","152","algLinUCB_0.9","diff-topics","elementary_mathematics","The following are multiple choice questions about high_school_mathematics.
Colton and his dad bought a gallon of paint that cost $13. They also bought 2 brushes that cost $9 each. What was the total cost, not including tax, of the brushes and the paint they bought?
(A) $22, (B) $24, (C) $31, (D) $35
Answer: C
Solve for y. y – 2 + 3y = 10
(A) 2, (B) 3, (C) 4, (D) 5
Answer: B
Solve 3 over 2 * w = 66.
(A) 33, (B) 44, (C) 88, (D) 99
Answer: B
Write 5.875 as a mixed number or fraction in simplest form.
(A) 5 and 8 over 9, (B) 5 and 7 over 8, (C) 7 over 8, (D) 5 and 87 over 105
Answer: B
Solve the equation 124 = m + 34.
(A) 158, (B) 90, (C) 88, (D) 4,216
Answer: B
Zelma buys p pounds of bananas for 40 cents per pound. She pays the clerk with a twenty-dollar bill. The clerk subtracts the total cost of the bananas from the twenty-dollar bill to determine the amount of change to give Zelma. Which expression represents the amount of change Zelma should receive?
(A) p - 20, (B) 20 - 40p, (C) 20 - 0.40p, (D) 0.40p - 20
Answer: C
Please answer the following question with just the correct option (A, B, C, or D) without any explanation or additional text.
Which situation can be represented by the fraction 20/8?
(A) 'Leslie spent 20 dollars and 8 cents at a store. How is the amount of money Leslie spent written as a fraction?', (B) 'Mr. Kramer’s 8 grandchildren shared 20 crackers equally. How many crackers did each grandchild get?', (C) 'Mitch bought 20 containers of flowers at a plant store. Each container had 8 flowers in it. How many flowers did Mitch buy?', (D) 'Stamps are sold in booklets of 20 stamps. Donna used 8 stamps to send invitations for a party. How many booklets of stamps did Donna use to send her invitations?'
Answer:","","","","","","","","","","","","","","","","","","","","","","feedback_imgs/Incorrect.png"
"call-function","8","37821","0.0-4.0-0.1","7qhz4zy3zhjyfpo","","","","2","","","","","","defer","A box contains 4 white balls and 4 black balls. I draw them out of the box, one at a time. What is the probability that all of my draws alternate colors?","[""1/8"",""1/7"",""1/40"",""1/35""]","C","A","modiste","","D","130","algLinUCB_0.9","diff-topics","high_school_mathematics","The following are multiple choice questions about high_school_mathematics.
Colton and his dad bought a gallon of paint that cost $13. They also bought 2 brushes that cost $9 each. What was the total cost, not including tax, of the brushes and the paint they bought?
(A) $22, (B) $24, (C) $31, (D) $35
Answer: C
Solve for y. y – 2 + 3y = 10
(A) 2, (B) 3, (C) 4, (D) 5
Answer: B
Solve 3 over 2 * w = 66.
(A) 33, (B) 44, (C) 88, (D) 99
Answer: B
Write 5.875 as a mixed number or fraction in simplest form.
(A) 5 and 8 over 9, (B) 5 and 7 over 8, (C) 7 over 8, (D) 5 and 87 over 105
Answer: B
Solve the equation 124 = m + 34.
(A) 158, (B) 90, (C) 88, (D) 4,216
Answer: B
Zelma buys p pounds of bananas for 40 cents per pound. She pays the clerk with a twenty-dollar bill. The clerk subtracts the total cost of the bananas from the twenty-dollar bill to determine the amount of change to give Zelma. Which expression represents the amount of change Zelma should receive?
(A) p - 20, (B) 20 - 40p, (C) 20 - 0.40p, (D) 0.40p - 20
Answer: C
Please answer the following question with just the correct option (A, B, C, or D) without any explanation or additional text.
A box contains 4 white balls and 4 black balls. I draw them out of the box, one at a time. What is the probability that all of my draws alternate colors?
(A) '1/8', (B) '1/7', (C) '1/40', (D) '1/35'
Answer:","","","","","","","","","","true","2","","","","","","","","","","",""
"survey-html-form","9","54461","0.0-4.0-1.1","7qhz4zy3zhjyfpo","","","","2","16637.100000023842","","","{""mcAnswer"":""A""}","","","A box contains 4 white balls and 4 black balls. I draw them out of the box, one at a time. What is the probability that all of my draws alternate colors?","[""1/8"",""1/7"",""1/40"",""1/35""]","C","A","modiste","","D","130","algLinUCB_0.9","diff-topics","high_school_mathematics","The following are multiple choice questions about high_school_mathematics.
Colton and his dad bought a gallon of paint that cost $13. They also bought 2 brushes that cost $9 each. What was the total cost, not including tax, of the brushes and the paint they bought?
(A) $22, (B) $24, (C) $31, (D) $35
Answer: C
Solve for y. y – 2 + 3y = 10
(A) 2, (B) 3, (C) 4, (D) 5
Answer: B
Solve 3 over 2 * w = 66.
(A) 33, (B) 44, (C) 88, (D) 99
Answer: B
Write 5.875 as a mixed number or fraction in simplest form.
(A) 5 and 8 over 9, (B) 5 and 7 over 8, (C) 7 over 8, (D) 5 and 87 over 105
Answer: B
Solve the equation 124 = m + 34.
(A) 158, (B) 90, (C) 88, (D) 4,216
Answer: B
Zelma buys p pounds of bananas for 40 cents per pound. She pays the clerk with a twenty-dollar bill. The clerk subtracts the total cost of the bananas from the twenty-dollar bill to determine the amount of change to give Zelma. Which expression represents the amount of change Zelma should receive?
(A) p - 20, (B) 20 - 40p, (C) 20 - 0.40p, (D) 0.40p - 20
Answer: C
Please answer the following question with just the correct option (A, B, C, or D) without any explanation or additional text.
A box contains 4 white balls and 4 black balls. I draw them out of the box, one at a time. What is the probability that all of my draws alternate colors?
(A) '1/8', (B) '1/7', (C) '1/40', (D) '1/35'
Answer:","","","","","","","","","","","","","","","","","","","","","",""
"","","","","","","","","","","","","","","","","","","","","","","","","","","","A","","","","","","","","","","","","","","","","","","","","",""
"","","","","","","","","","","","","","","","","","","","","","","","","","","","","false","93","-1","C","false","false","defer","[]","true","2","false","0","{""elementary_mathematics"":[""40/50"",""31/50"",""4/6""],""high_school_mathematics"":[""27/51"",""22/50"",""3 / 5""],""college_mathematics"":[""22/50"",""26/50"",""2 / 5""]}","{""elementary_mathematics"":true,""high_school_mathematics"":false}","You should attempt this problem by yourself","null","false","null","null","false",""
"image-keyboard-response","10","55965","0.0-4.0-2.1","7qhz4zy3zhjyfpo","","","","2","null","","","null","","","A box contains 4 white balls and 4 black balls. I draw them out of the box, one at a time. What is the probability that all of my draws alternate colors?","[""1/8"",""1/7"",""1/40"",""1/35""]","C","A","modiste","","D","130","algLinUCB_0.9","diff-topics","high_school_mathematics","The following are multiple choice questions about high_school_mathematics.
Colton and his dad bought a gallon of paint that cost $13. They also bought 2 brushes that cost $9 each. What was the total cost, not including tax, of the brushes and the paint they bought?
(A) $22, (B) $24, (C) $31, (D) $35
Answer: C
Solve for y. y – 2 + 3y = 10
(A) 2, (B) 3, (C) 4, (D) 5
Answer: B
Solve 3 over 2 * w = 66.
(A) 33, (B) 44, (C) 88, (D) 99
Answer: B
Write 5.875 as a mixed number or fraction in simplest form.
(A) 5 and 8 over 9, (B) 5 and 7 over 8, (C) 7 over 8, (D) 5 and 87 over 105
Answer: B
Solve the equation 124 = m + 34.
(A) 158, (B) 90, (C) 88, (D) 4,216
Answer: B
Zelma buys p pounds of bananas for 40 cents per pound. She pays the clerk with a twenty-dollar bill. The clerk subtracts the total cost of the bananas from the twenty-dollar bill to determine the amount of change to give Zelma. Which expression represents the amount of change Zelma should receive?
(A) p - 20, (B) 20 - 40p, (C) 20 - 0.40p, (D) 0.40p - 20
Answer: C
Please answer the following question with just the correct option (A, B, C, or D) without any explanation or additional text.
A box contains 4 white balls and 4 black balls. I draw them out of the box, one at a time. What is the probability that all of my draws alternate colors?
(A) '1/8', (B) '1/7', (C) '1/40', (D) '1/35'
Answer:","","","","","","","","","","","","","","","","","","","","","","feedback_imgs/Incorrect.png"
"call-function","11","55965","0.0-4.0-0.2","7qhz4zy3zhjyfpo","","","","2","","","","","","defer","Let V be the vector space, under the usual operations, of real polynomials that are of degree at most 3. Let W be the subspace of all polynomials p (x) in V such that p (0) = p(1) = p(-1) = 0. Then dim V + dim W is","[""4"",""5"",""6"",""7""]","C","B","modiste","","B","176","algLinUCB_0.9","diff-topics","college_mathematics","The following are multiple choice questions about high_school_mathematics.
Colton and his dad bought a gallon of paint that cost $13. They also bought 2 brushes that cost $9 each. What was the total cost, not including tax, of the brushes and the paint they bought?
(A) $22, (B) $24, (C) $31, (D) $35
Answer: C
Solve for y. y – 2 + 3y = 10
(A) 2, (B) 3, (C) 4, (D) 5
Answer: B
Solve 3 over 2 * w = 66.
(A) 33, (B) 44, (C) 88, (D) 99
Answer: B
Write 5.875 as a mixed number or fraction in simplest form.
(A) 5 and 8 over 9, (B) 5 and 7 over 8, (C) 7 over 8, (D) 5 and 87 over 105
Answer: B
Solve the equation 124 = m + 34.
(A) 158, (B) 90, (C) 88, (D) 4,216
Answer: B
Zelma buys p pounds of bananas for 40 cents per pound. She pays the clerk with a twenty-dollar bill. The clerk subtracts the total cost of the bananas from the twenty-dollar bill to determine the amount of change to give Zelma. Which expression represents the amount of change Zelma should receive?
(A) p - 20, (B) 20 - 40p, (C) 20 - 0.40p, (D) 0.40p - 20
Answer: C
Please answer the following question with just the correct option (A, B, C, or D) without any explanation or additional text.
Let V be the vector space, under the usual operations, of real polynomials that are of degree at most 3. Let W be the subspace of all polynomials p (x) in V such that p (0) = p(1) = p(-1) = 0. Then dim V + dim W is
(A) '4', (B) '5', (C) '6', (D) '7'
Answer:","","","","","","","","","","","","true","2","","","","","","","","",""
"survey-html-form","12","69097","0.0-4.0-1.2","7qhz4zy3zhjyfpo","","","","2","13128","","","{""mcAnswer"":""C""}","","","Let V be the vector space, under the usual operations, of real polynomials that are of degree at most 3. Let W be the subspace of all polynomials p (x) in V such that p (0) = p(1) = p(-1) = 0. Then dim V + dim W is","[""4"",""5"",""6"",""7""]","C","B","modiste","","B","176","algLinUCB_0.9","diff-topics","college_mathematics","The following are multiple choice questions about high_school_mathematics.
Colton and his dad bought a gallon of paint that cost $13. They also bought 2 brushes that cost $9 each. What was the total cost, not including tax, of the brushes and the paint they bought?
(A) $22, (B) $24, (C) $31, (D) $35
Answer: C
Solve for y. y – 2 + 3y = 10
(A) 2, (B) 3, (C) 4, (D) 5
Answer: B
Solve 3 over 2 * w = 66.
(A) 33, (B) 44, (C) 88, (D) 99
Answer: B
Write 5.875 as a mixed number or fraction in simplest form.
(A) 5 and 8 over 9, (B) 5 and 7 over 8, (C) 7 over 8, (D) 5 and 87 over 105
Answer: B
Solve the equation 124 = m + 34.
(A) 158, (B) 90, (C) 88, (D) 4,216
Answer: B
Zelma buys p pounds of bananas for 40 cents per pound. She pays the clerk with a twenty-dollar bill. The clerk subtracts the total cost of the bananas from the twenty-dollar bill to determine the amount of change to give Zelma. Which expression represents the amount of change Zelma should receive?
(A) p - 20, (B) 20 - 40p, (C) 20 - 0.40p, (D) 0.40p - 20
Answer: C
Please answer the following question with just the correct option (A, B, C, or D) without any explanation or additional text.
Let V be the vector space, under the usual operations, of real polynomials that are of degree at most 3. Let W be the subspace of all polynomials p (x) in V such that p (0) = p(1) = p(-1) = 0. Then dim V + dim W is
(A) '4', (B) '5', (C) '6', (D) '7'
Answer:","","","","","","","","","","","","","","","","","","","","","",""
"","","","","","","","","","","","","","","","","","","","","","","","","","","","C","","","","","","","","","","","","","","","","","","","","",""
"","","","","","","","","","","","","","","","","","","","","","","","","","","","","false","90","-1","C","false","false","defer","[]","false","0","true","2","{""elementary_mathematics"":[""40/50"",""31/50"",""4/6""],""high_school_mathematics"":[""27/51"",""22/50"",""3 / 5""],""college_mathematics"":[""22/50"",""26/51"",""2 / 5""]}","{""elementary_mathematics"":true,""high_school_mathematics"":false,""college_mathematics"":false}","You should outsource this problem to the AI agent","false","null","true","null","null",""
"image-keyboard-response","13","70602","0.0-4.0-2.2","7qhz4zy3zhjyfpo","","","","2","null","","","null","","","Let V be the vector space, under the usual operations, of real polynomials that are of degree at most 3. Let W be the subspace of all polynomials p (x) in V such that p (0) = p(1) = p(-1) = 0. Then dim V + dim W is","[""4"",""5"",""6"",""7""]","C","B","modiste","","B","176","algLinUCB_0.9","diff-topics","college_mathematics","The following are multiple choice questions about high_school_mathematics.
Colton and his dad bought a gallon of paint that cost $13. They also bought 2 brushes that cost $9 each. What was the total cost, not including tax, of the brushes and the paint they bought?
(A) $22, (B) $24, (C) $31, (D) $35
Answer: C
Solve for y. y – 2 + 3y = 10
(A) 2, (B) 3, (C) 4, (D) 5
Answer: B
Solve 3 over 2 * w = 66.
(A) 33, (B) 44, (C) 88, (D) 99
Answer: B
Write 5.875 as a mixed number or fraction in simplest form.
(A) 5 and 8 over 9, (B) 5 and 7 over 8, (C) 7 over 8, (D) 5 and 87 over 105
Answer: B
Solve the equation 124 = m + 34.
(A) 158, (B) 90, (C) 88, (D) 4,216
Answer: B
Zelma buys p pounds of bananas for 40 cents per pound. She pays the clerk with a twenty-dollar bill. The clerk subtracts the total cost of the bananas from the twenty-dollar bill to determine the amount of change to give Zelma. Which expression represents the amount of change Zelma should receive?
(A) p - 20, (B) 20 - 40p, (C) 20 - 0.40p, (D) 0.40p - 20
Answer: C
Please answer the following question with just the correct option (A, B, C, or D) without any explanation or additional text.
Let V be the vector space, under the usual operations, of real polynomials that are of degree at most 3. Let W be the subspace of all polynomials p (x) in V such that p (0) = p(1) = p(-1) = 0. Then dim V + dim W is
(A) '4', (B) '5', (C) '6', (D) '7'
Answer:","","","","","","","","","","","","","","","","","","","","","","feedback_imgs/Incorrect.png"
"call-function","14","70603","0.0-4.0-0.3","7qhz4zy3zhjyfpo","","","","2","","","","","","defer","The Sojourn family went on a vacation. They started with 2000. If they spent 150 each day, which expression represents how much money they had after x days?","[""1850x"",""2000 −150x"",""150x"",""2000 +150x""]","B","B","modiste","","B","140","algLinUCB_0.9","diff-topics","elementary_mathematics","The following are multiple choice questions about high_school_mathematics.
Colton and his dad bought a gallon of paint that cost $13. They also bought 2 brushes that cost $9 each. What was the total cost, not including tax, of the brushes and the paint they bought?
(A) $22, (B) $24, (C) $31, (D) $35
Answer: C
Solve for y. y – 2 + 3y = 10
(A) 2, (B) 3, (C) 4, (D) 5
Answer: B
Solve 3 over 2 * w = 66.
(A) 33, (B) 44, (C) 88, (D) 99
Answer: B
Write 5.875 as a mixed number or fraction in simplest form.
(A) 5 and 8 over 9, (B) 5 and 7 over 8, (C) 7 over 8, (D) 5 and 87 over 105
Answer: B
Solve the equation 124 = m + 34.
(A) 158, (B) 90, (C) 88, (D) 4,216
Answer: B
Zelma buys p pounds of bananas for 40 cents per pound. She pays the clerk with a twenty-dollar bill. The clerk subtracts the total cost of the bananas from the twenty-dollar bill to determine the amount of change to give Zelma. Which expression represents the amount of change Zelma should receive?
(A) p - 20, (B) 20 - 40p, (C) 20 - 0.40p, (D) 0.40p - 20
Answer: C
Please answer the following question with just the correct option (A, B, C, or D) without any explanation or additional text.
The Sojourn family went on a vacation. They started with 2000. If they spent 150 each day, which expression represents how much money they had after x days?
(A) '1850x', (B) '2000 −150x', (C) '150x', (D) '2000 +150x'
Answer:","","","","","","","","","","true","2","","","","","","","","","","",""
"survey-html-form","15","92415","0.0-4.0-1.3","7qhz4zy3zhjyfpo","","","","2","21809.399999976158","","","{""mcAnswer"":""C""}","","","The Sojourn family went on a vacation. They started with 2000. If they spent 150 each day, which expression represents how much money they had after x days?","[""1850x"",""2000 −150x"",""150x"",""2000 +150x""]","B","B","modiste","","B","140","algLinUCB_0.9","diff-topics","elementary_mathematics","The following are multiple choice questions about high_school_mathematics.
Colton and his dad bought a gallon of paint that cost $13. They also bought 2 brushes that cost $9 each. What was the total cost, not including tax, of the brushes and the paint they bought?
(A) $22, (B) $24, (C) $31, (D) $35
Answer: C
Solve for y. y – 2 + 3y = 10
(A) 2, (B) 3, (C) 4, (D) 5
Answer: B
Solve 3 over 2 * w = 66.
(A) 33, (B) 44, (C) 88, (D) 99
Answer: B
Write 5.875 as a mixed number or fraction in simplest form.
(A) 5 and 8 over 9, (B) 5 and 7 over 8, (C) 7 over 8, (D) 5 and 87 over 105
Answer: B
Solve the equation 124 = m + 34.
(A) 158, (B) 90, (C) 88, (D) 4,216
Answer: B
Zelma buys p pounds of bananas for 40 cents per pound. She pays the clerk with a twenty-dollar bill. The clerk subtracts the total cost of the bananas from the twenty-dollar bill to determine the amount of change to give Zelma. Which expression represents the amount of change Zelma should receive?
(A) p - 20, (B) 20 - 40p, (C) 20 - 0.40p, (D) 0.40p - 20
Answer: C
Please answer the following question with just the correct option (A, B, C, or D) without any explanation or additional text.
The Sojourn family went on a vacation. They started with 2000. If they spent 150 each day, which expression represents how much money they had after x days?
(A) '1850x', (B) '2000 −150x', (C) '150x', (D) '2000 +150x'
Answer:","","","","","","","","","","","","","","","","","","","","","",""
"","","","","","","","","","","","","","","","","","","","","","","","","","","","C","","","","","","","","","","","","","","","","","","","","",""
"","","","","","","","","","","","","","","","","","","","","","","","","","","","","false","83","-1","B","false","true","defer","[]","true","2","false","0","{""elementary_mathematics"":[""40/51"",""31/50"",""4/6""],""high_school_mathematics"":[""27/51"",""22/50"",""3 / 5""],""college_mathematics"":[""22/50"",""26/51"",""2 / 5""]}","{""elementary_mathematics"":false,""high_school_mathematics"":false,""college_mathematics"":false}","You were wrong by yourself on elementary_mathematics last time. You should outsource this problem to a human agent","null","true","null","true","null",""
"image-keyboard-response","16","93919","0.0-4.0-2.3","7qhz4zy3zhjyfpo","","","","2","null","","","null","","","The Sojourn family went on a vacation. They started with 2000. If they spent 150 each day, which expression represents how much money they had after x days?","[""1850x"",""2000 −150x"",""150x"",""2000 +150x""]","B","B","modiste","","B","140","algLinUCB_0.9","diff-topics","elementary_mathematics","The following are multiple choice questions about high_school_mathematics.
Colton and his dad bought a gallon of paint that cost $13. They also bought 2 brushes that cost $9 each. What was the total cost, not including tax, of the brushes and the paint they bought?
(A) $22, (B) $24, (C) $31, (D) $35
Answer: C
Solve for y. y – 2 + 3y = 10
(A) 2, (B) 3, (C) 4, (D) 5
Answer: B
Solve 3 over 2 * w = 66.
(A) 33, (B) 44, (C) 88, (D) 99
Answer: B
Write 5.875 as a mixed number or fraction in simplest form.
(A) 5 and 8 over 9, (B) 5 and 7 over 8, (C) 7 over 8, (D) 5 and 87 over 105
Answer: B
Solve the equation 124 = m + 34.
(A) 158, (B) 90, (C) 88, (D) 4,216
Answer: B
Zelma buys p pounds of bananas for 40 cents per pound. She pays the clerk with a twenty-dollar bill. The clerk subtracts the total cost of the bananas from the twenty-dollar bill to determine the amount of change to give Zelma. Which expression represents the amount of change Zelma should receive?
(A) p - 20, (B) 20 - 40p, (C) 20 - 0.40p, (D) 0.40p - 20
Answer: C
Please answer the following question with just the correct option (A, B, C, or D) without any explanation or additional text.
The Sojourn family went on a vacation. They started with 2000. If they spent 150 each day, which expression represents how much money they had after x days?
(A) '1850x', (B) '2000 −150x', (C) '150x', (D) '2000 +150x'
Answer:","","","","","","","","","","","","","","","","","","","","","","feedback_imgs/Incorrect.png"
"call-function","17","93920","0.0-4.0-0.4","7qhz4zy3zhjyfpo","","","","2","","","","","","defer","Find the sum of all integers k such that binom{23}{4} + binom{23}{5} = binom{24}{k}.","[""24"",""5"",""3"",""21""]","B","A","modiste","","A","124","algLinUCB_0.9","diff-topics","high_school_mathematics","The following are multiple choice questions about high_school_mathematics.
Colton and his dad bought a gallon of paint that cost $13. They also bought 2 brushes that cost $9 each. What was the total cost, not including tax, of the brushes and the paint they bought?
(A) $22, (B) $24, (C) $31, (D) $35
Answer: C
Solve for y. y – 2 + 3y = 10
(A) 2, (B) 3, (C) 4, (D) 5
Answer: B
Solve 3 over 2 * w = 66.
(A) 33, (B) 44, (C) 88, (D) 99
Answer: B
Write 5.875 as a mixed number or fraction in simplest form.
(A) 5 and 8 over 9, (B) 5 and 7 over 8, (C) 7 over 8, (D) 5 and 87 over 105
Answer: B
Solve the equation 124 = m + 34.
(A) 158, (B) 90, (C) 88, (D) 4,216
Answer: B
Zelma buys p pounds of bananas for 40 cents per pound. She pays the clerk with a twenty-dollar bill. The clerk subtracts the total cost of the bananas from the twenty-dollar bill to determine the amount of change to give Zelma. Which expression represents the amount of change Zelma should receive?
(A) p - 20, (B) 20 - 40p, (C) 20 - 0.40p, (D) 0.40p - 20
Answer: C
Please answer the following question with just the correct option (A, B, C, or D) without any explanation or additional text.
Find the sum of all integers k such that binom{23}{4} + binom{23}{5} = binom{24}{k}.
(A) '24', (B) '5', (C) '3', (D) '21'
Answer:","","","","","","","","","","","","","","","","","","","","","",""
"survey-html-form","18","104965","0.0-4.0-1.4","7qhz4zy3zhjyfpo","","","","2","11041.5","","","{""mcAnswer"":""D""}","","","Find the sum of all integers k such that binom{23}{4} + binom{23}{5} = binom{24}{k}.","[""24"",""5"",""3"",""21""]","B","A","modiste","","A","124","algLinUCB_0.9","diff-topics","high_school_mathematics","The following are multiple choice questions about high_school_mathematics.
Colton and his dad bought a gallon of paint that cost $13. They also bought 2 brushes that cost $9 each. What was the total cost, not including tax, of the brushes and the paint they bought?
(A) $22, (B) $24, (C) $31, (D) $35
Answer: C
Solve for y. y – 2 + 3y = 10
(A) 2, (B) 3, (C) 4, (D) 5
Answer: B
Solve 3 over 2 * w = 66.
(A) 33, (B) 44, (C) 88, (D) 99
Answer: B
Write 5.875 as a mixed number or fraction in simplest form.
(A) 5 and 8 over 9, (B) 5 and 7 over 8, (C) 7 over 8, (D) 5 and 87 over 105
Answer: B
Solve the equation 124 = m + 34.
(A) 158, (B) 90, (C) 88, (D) 4,216
Answer: B
Zelma buys p pounds of bananas for 40 cents per pound. She pays the clerk with a twenty-dollar bill. The clerk subtracts the total cost of the bananas from the twenty-dollar bill to determine the amount of change to give Zelma. Which expression represents the amount of change Zelma should receive?
(A) p - 20, (B) 20 - 40p, (C) 20 - 0.40p, (D) 0.40p - 20
Answer: C
Please answer the following question with just the correct option (A, B, C, or D) without any explanation or additional text.
Find the sum of all integers k such that binom{23}{4} + binom{23}{5} = binom{24}{k}.
(A) '24', (B) '5', (C) '3', (D) '21'
Answer:","","","","","","","","","","","","","","","","","","","","","",""
"","","","","","","","","","","","","","","","","","","","","","","","","","","","D","","","","","","","","","","","","","","","","","","","","",""
"","","","","","","","","","","","","","","","","","","","","","","","","","","","","false","83","-1","B","false","false","defer","[]","false","0","false","0","{""elementary_mathematics"":[""40/51"",""31/50"",""4/6""],""high_school_mathematics"":[""27/51"",""22/50"",""3/6""],""college_mathematics"":[""22/50"",""26/51"",""2 / 5""]}","{""elementary_mathematics"":false,""high_school_mathematics"":true,""college_mathematics"":false}","You should attempt this problem by yourself","null","null","null","null","true",""
"image-keyboard-response","19","106468","0.0-4.0-2.4","7qhz4zy3zhjyfpo","","","","2","null","","","null","","","Find the sum of all integers k such that binom{23}{4} + binom{23}{5} = binom{24}{k}.","[""24"",""5"",""3"",""21""]","B","A","modiste","","A","124","algLinUCB_0.9","diff-topics","high_school_mathematics","The following are multiple choice questions about high_school_mathematics.
Colton and his dad bought a gallon of paint that cost $13. They also bought 2 brushes that cost $9 each. What was the total cost, not including tax, of the brushes and the paint they bought?
(A) $22, (B) $24, (C) $31, (D) $35
Answer: C
Solve for y. y – 2 + 3y = 10
(A) 2, (B) 3, (C) 4, (D) 5
Answer: B
Solve 3 over 2 * w = 66.
(A) 33, (B) 44, (C) 88, (D) 99
Answer: B
Write 5.875 as a mixed number or fraction in simplest form.
(A) 5 and 8 over 9, (B) 5 and 7 over 8, (C) 7 over 8, (D) 5 and 87 over 105
Answer: B
Solve the equation 124 = m + 34.
(A) 158, (B) 90, (C) 88, (D) 4,216
Answer: B
Zelma buys p pounds of bananas for 40 cents per pound. She pays the clerk with a twenty-dollar bill. The clerk subtracts the total cost of the bananas from the twenty-dollar bill to determine the amount of change to give Zelma. Which expression represents the amount of change Zelma should receive?
(A) p - 20, (B) 20 - 40p, (C) 20 - 0.40p, (D) 0.40p - 20
Answer: C
Please answer the following question with just the correct option (A, B, C, or D) without any explanation or additional text.
Find the sum of all integers k such that binom{23}{4} + binom{23}{5} = binom{24}{k}.
(A) '24', (B) '5', (C) '3', (D) '21'
Answer:","","","","","","","","","","","","","","","","","","","","","","feedback_imgs/Incorrect.png"
"call-function","20","106469","0.0-4.0-0.5","7qhz4zy3zhjyfpo","","","","2","","","","","","defer","Suppose A and B are n × n matrices with real entries. Which of the follow are TRUE?
I. The trace of A^2 is nonnegative.
II. If A^2 = A, then the trace of A is nonnegative.
III. The trace of AB is the product of the traces of A and B.","[""II only"",""III only"",""I and II only"",""II and III only""]","C","C","modiste","","A","163","algLinUCB_0.9","diff-topics","college_mathematics","The following are multiple choice questions about high_school_mathematics.
Colton and his dad bought a gallon of paint that cost $13. They also bought 2 brushes that cost $9 each. What was the total cost, not including tax, of the brushes and the paint they bought?
(A) $22, (B) $24, (C) $31, (D) $35
Answer: C
Solve for y. y – 2 + 3y = 10
(A) 2, (B) 3, (C) 4, (D) 5
Answer: B
Solve 3 over 2 * w = 66.
(A) 33, (B) 44, (C) 88, (D) 99
Answer: B
Write 5.875 as a mixed number or fraction in simplest form.
(A) 5 and 8 over 9, (B) 5 and 7 over 8, (C) 7 over 8, (D) 5 and 87 over 105
Answer: B
Solve the equation 124 = m + 34.
(A) 158, (B) 90, (C) 88, (D) 4,216
Answer: B
Zelma buys p pounds of bananas for 40 cents per pound. She pays the clerk with a twenty-dollar bill. The clerk subtracts the total cost of the bananas from the twenty-dollar bill to determine the amount of change to give Zelma. Which expression represents the amount of change Zelma should receive?
(A) p - 20, (B) 20 - 40p, (C) 20 - 0.40p, (D) 0.40p - 20
Answer: C
Please answer the following question with just the correct option (A, B, C, or D) without any explanation or additional text.
Suppose A and B are n × n matrices with real entries. Which of the follow are TRUE?
I. The trace of A^2 is nonnegative.
II. If A^2 = A, then the trace of A is nonnegative.
III. The trace of AB is the product of the traces of A and B.
(A) 'II only', (B) 'III only', (C) 'I and II only', (D) 'II and III only'
Answer:","","","","","","","","","","","","true","2","","","","","","","","",""
"survey-html-form","21","120181","0.0-4.0-1.5","7qhz4zy3zhjyfpo","","","","2","13708.800000011921","","","{""mcAnswer"":""D""}","","","Suppose A and B are n × n matrices with real entries. Which of the follow are TRUE?
I. The trace of A^2 is nonnegative.
II. If A^2 = A, then the trace of A is nonnegative.
III. The trace of AB is the product of the traces of A and B.","[""II only"",""III only"",""I and II only"",""II and III only""]","C","C","modiste","","A","163","algLinUCB_0.9","diff-topics","college_mathematics","The following are multiple choice questions about high_school_mathematics.
Colton and his dad bought a gallon of paint that cost $13. They also bought 2 brushes that cost $9 each. What was the total cost, not including tax, of the brushes and the paint they bought?
(A) $22, (B) $24, (C) $31, (D) $35
Answer: C
Solve for y. y – 2 + 3y = 10
(A) 2, (B) 3, (C) 4, (D) 5
Answer: B
Solve 3 over 2 * w = 66.
(A) 33, (B) 44, (C) 88, (D) 99
Answer: B
Write 5.875 as a mixed number or fraction in simplest form.
(A) 5 and 8 over 9, (B) 5 and 7 over 8, (C) 7 over 8, (D) 5 and 87 over 105
Answer: B
Solve the equation 124 = m + 34.
(A) 158, (B) 90, (C) 88, (D) 4,216
Answer: B
Zelma buys p pounds of bananas for 40 cents per pound. She pays the clerk with a twenty-dollar bill. The clerk subtracts the total cost of the bananas from the twenty-dollar bill to determine the amount of change to give Zelma. Which expression represents the amount of change Zelma should receive?
(A) p - 20, (B) 20 - 40p, (C) 20 - 0.40p, (D) 0.40p - 20
Answer: C
Please answer the following question with just the correct option (A, B, C, or D) without any explanation or additional text.
Suppose A and B are n × n matrices with real entries. Which of the follow are TRUE?
I. The trace of A^2 is nonnegative.
II. If A^2 = A, then the trace of A is nonnegative.
III. The trace of AB is the product of the traces of A and B.
(A) 'II only', (B) 'III only', (C) 'I and II only', (D) 'II and III only'
Answer:","","","","","","","","","","","","","","","","","","","","","",""
"","","","","","","","","","","","","","","","","","","","","","","","","","","","D","","","","","","","","","","","","","","","","","","","","",""
"","","","","","","","","","","","","","","","","","","","","","","","","","","","","false","80","-1","C","false","false","defer","[]","false","0","true","2","{""elementary_mathematics"":[""40/51"",""31/50"",""4/6""],""high_school_mathematics"":[""27/51"",""22/50"",""3/6""],""college_mathematics"":[""22/50"",""26/52"",""2 / 5""]}","{""elementary_mathematics"":false,""high_school_mathematics"":true,""college_mathematics"":false}","You should outsource this problem to the AI agent","true","null","true","null","null",""
"image-keyboard-response","22","121688","0.0-4.0-2.5","7qhz4zy3zhjyfpo","","","","2","null","","","null","","","Suppose A and B are n × n matrices with real entries. Which of the follow are TRUE?
I. The trace of A^2 is nonnegative.
II. If A^2 = A, then the trace of A is nonnegative.
III. The trace of AB is the product of the traces of A and B.","[""II only"",""III only"",""I and II only"",""II and III only""]","C","C","modiste","","A","163","algLinUCB_0.9","diff-topics","college_mathematics","The following are multiple choice questions about high_school_mathematics.
Colton and his dad bought a gallon of paint that cost $13. They also bought 2 brushes that cost $9 each. What was the total cost, not including tax, of the brushes and the paint they bought?
(A) $22, (B) $24, (C) $31, (D) $35
Answer: C
Solve for y. y – 2 + 3y = 10
(A) 2, (B) 3, (C) 4, (D) 5
Answer: B
Solve 3 over 2 * w = 66.
(A) 33, (B) 44, (C) 88, (D) 99
Answer: B
Write 5.875 as a mixed number or fraction in simplest form.
(A) 5 and 8 over 9, (B) 5 and 7 over 8, (C) 7 over 8, (D) 5 and 87 over 105
Answer: B
Solve the equation 124 = m + 34.
(A) 158, (B) 90, (C) 88, (D) 4,216
Answer: B
Zelma buys p pounds of bananas for 40 cents per pound. She pays the clerk with a twenty-dollar bill. The clerk subtracts the total cost of the bananas from the twenty-dollar bill to determine the amount of change to give Zelma. Which expression represents the amount of change Zelma should receive?
(A) p - 20, (B) 20 - 40p, (C) 20 - 0.40p, (D) 0.40p - 20
Answer: C
Please answer the following question with just the correct option (A, B, C, or D) without any explanation or additional text.
Suppose A and B are n × n matrices with real entries. Which of the follow are TRUE?
I. The trace of A^2 is nonnegative.
II. If A^2 = A, then the trace of A is nonnegative.
III. The trace of AB is the product of the traces of A and B.
(A) 'II only', (B) 'III only', (C) 'I and II only', (D) 'II and III only'
Answer:","","","","","","","","","","","","","","","","","","","","","","feedback_imgs/Incorrect.png"
"call-function","23","121689","0.0-4.0-0.6","7qhz4zy3zhjyfpo","","","","2","","","","","","defer","What is the value of 5 + 2 • 15 + (12 • 4)?","[""78"",""83"",""131"",""153""]","B","B","modiste","","B","151","algLinUCB_0.9","diff-topics","elementary_mathematics","The following are multiple choice questions about high_school_mathematics.
Colton and his dad bought a gallon of paint that cost $13. They also bought 2 brushes that cost $9 each. What was the total cost, not including tax, of the brushes and the paint they bought?
(A) $22, (B) $24, (C) $31, (D) $35
Answer: C
Solve for y. y – 2 + 3y = 10
(A) 2, (B) 3, (C) 4, (D) 5
Answer: B
Solve 3 over 2 * w = 66.
(A) 33, (B) 44, (C) 88, (D) 99
Answer: B
Write 5.875 as a mixed number or fraction in simplest form.
(A) 5 and 8 over 9, (B) 5 and 7 over 8, (C) 7 over 8, (D) 5 and 87 over 105
Answer: B
Solve the equation 124 = m + 34.
(A) 158, (B) 90, (C) 88, (D) 4,216
Answer: B
Zelma buys p pounds of bananas for 40 cents per pound. She pays the clerk with a twenty-dollar bill. The clerk subtracts the total cost of the bananas from the twenty-dollar bill to determine the amount of change to give Zelma. Which expression represents the amount of change Zelma should receive?
(A) p - 20, (B) 20 - 40p, (C) 20 - 0.40p, (D) 0.40p - 20
Answer: C
Please answer the following question with just the correct option (A, B, C, or D) without any explanation or additional text.
What is the value of 5 + 2 • 15 + (12 • 4)?
(A) '78', (B) '83', (C) '131', (D) '153'
Answer:","","","","","","","","","","","","","","","","","","","","","",""
