"trial_type","trial_index","time_elapsed","internal_node_id","subject","prolific_id","study_id","session_id","condition","rt","url","view_history","response","question_order","value","question","options","llm_answer","population_answer","task","subj_id","label","example_id","variant","main_variant","topic","prompt","0","btn_clicked","score","timeToClick","modelPred","humanCorrect","modelCorrect","interfaceType","modelPredDist","human_support_used","human_support_clicks","llm_support_used","llm_support_clicks","recommendation_lists","incorrect_answers_by_category","recommendation","LLM_outsourcing_overridden","human_outsourcing_overridden","ai_orch_agreement","human_orch_agreement","self_orch_agreement","stimulus"
"pavlovia","0","2106","0.0-0.0","0l470lfexldeb9q","6771bbe322322bf003bae1f2","67b62c430b9240ccd8986e70","67b63156388532ea4853c0e9","1","","","","","","","","","","","","","","","","","","","","","","","","","","","","","","","","","","","","","","","",""
"external-html","1","1410254","0.0-1.0","0l470lfexldeb9q","6771bbe322322bf003bae1f2","67b62c430b9240ccd8986e70","67b63156388532ea4853c0e9","1","1407789.800000012","consent.html","","","","","","","","","","","","","","","","","","","","","","","","","","","","","","","","","","","","","",""
"instructions","2","2875812","0.0-2.0-0.0","0l470lfexldeb9q","6771bbe322322bf003bae1f2","67b62c430b9240ccd8986e70","67b63156388532ea4853c0e9","1","1465556.800000012","","[{""page_index"":0,""viewing_time"":11092.700000017881},{""page_index"":1,""viewing_time"":269023.39999997616},{""page_index"":2,""viewing_time"":1120463.900000006},{""page_index"":3,""viewing_time"":35792.09999999404},{""page_index"":4,""viewing_time"":9343.700000017881},{""page_index"":5,""viewing_time"":11231.90000000596},{""page_index"":6,""viewing_time"":3008.2999999821186},{""page_index"":7,""viewing_time"":5600}]","","","","","","","","","","","","","","","","","","","","","","","","","","","","","","","","","","","","",""
"survey-multi-choice","3","2910756","0.0-2.0-1.0","0l470lfexldeb9q","6771bbe322322bf003bae1f2","67b62c430b9240ccd8986e70","67b63156388532ea4853c0e9","1","34942.29999998212","","","{""Q0"":""The answer to a mutliple choice question."",""Q1"":""Clicking on a radio button.""}","[0,1]","","","","","","","","","","","","","","","","","","","","","","","","","","","","","","","","","","",""
"instructions","4","2944323","0.0-3.0","0l470lfexldeb9q","6771bbe322322bf003bae1f2","67b62c430b9240ccd8986e70","67b63156388532ea4853c0e9","1","33566.60000002384","","[{""page_index"":0,""viewing_time"":33566.40000000596}]","","","","","","","","","","","","","","","","","","","","","","","","","","","","","","","","","","","","",""
"call-function","5","2944324","0.0-4.0-0.0","0l470lfexldeb9q","6771bbe322322bf003bae1f2","67b62c430b9240ccd8986e70","67b63156388532ea4853c0e9","1","","","","","","defer","What is the quotient for the expression 2,314 / 4?","[""508"",""508 r2"",""578"",""578 r2""]","B","D","modiste","","D","87","algLinUCB_0.9","diff-topics","elementary_mathematics","The following are multiple choice questions about high_school_mathematics.
Colton and his dad bought a gallon of paint that cost $13. They also bought 2 brushes that cost $9 each. What was the total cost, not including tax, of the brushes and the paint they bought?
(A) $22, (B) $24, (C) $31, (D) $35
Answer: C
Solve for y. y – 2 + 3y = 10
(A) 2, (B) 3, (C) 4, (D) 5
Answer: B
Solve 3 over 2 * w = 66.
(A) 33, (B) 44, (C) 88, (D) 99
Answer: B
Write 5.875 as a mixed number or fraction in simplest form.
(A) 5 and 8 over 9, (B) 5 and 7 over 8, (C) 7 over 8, (D) 5 and 87 over 105
Answer: B
Solve the equation 124 = m + 34.
(A) 158, (B) 90, (C) 88, (D) 4,216
Answer: B
Zelma buys p pounds of bananas for 40 cents per pound. She pays the clerk with a twenty-dollar bill. The clerk subtracts the total cost of the bananas from the twenty-dollar bill to determine the amount of change to give Zelma. Which expression represents the amount of change Zelma should receive?
(A) p - 20, (B) 20 - 40p, (C) 20 - 0.40p, (D) 0.40p - 20
Answer: C
Please answer the following question with just the correct option (A, B, C, or D) without any explanation or additional text.
What is the quotient for the expression 2,314 / 4?
(A) '508', (B) '508 r2', (C) '578', (D) '578 r2'
Answer:","","","","","","","","","","","","","","","","","","","","","",""
"survey-html-form","6","3009468","0.0-4.0-1.0","0l470lfexldeb9q","6771bbe322322bf003bae1f2","67b62c430b9240ccd8986e70","67b63156388532ea4853c0e9","1","65141.90000000596","","","{""mcAnswer"":""D""}","","","What is the quotient for the expression 2,314 / 4?","[""508"",""508 r2"",""578"",""578 r2""]","B","D","modiste","","D","87","algLinUCB_0.9","diff-topics","elementary_mathematics","The following are multiple choice questions about high_school_mathematics.
Colton and his dad bought a gallon of paint that cost $13. They also bought 2 brushes that cost $9 each. What was the total cost, not including tax, of the brushes and the paint they bought?
(A) $22, (B) $24, (C) $31, (D) $35
Answer: C
Solve for y. y – 2 + 3y = 10
(A) 2, (B) 3, (C) 4, (D) 5
Answer: B
Solve 3 over 2 * w = 66.
(A) 33, (B) 44, (C) 88, (D) 99
Answer: B
Write 5.875 as a mixed number or fraction in simplest form.
(A) 5 and 8 over 9, (B) 5 and 7 over 8, (C) 7 over 8, (D) 5 and 87 over 105
Answer: B
Solve the equation 124 = m + 34.
(A) 158, (B) 90, (C) 88, (D) 4,216
Answer: B
Zelma buys p pounds of bananas for 40 cents per pound. She pays the clerk with a twenty-dollar bill. The clerk subtracts the total cost of the bananas from the twenty-dollar bill to determine the amount of change to give Zelma. Which expression represents the amount of change Zelma should receive?
(A) p - 20, (B) 20 - 40p, (C) 20 - 0.40p, (D) 0.40p - 20
Answer: C
Please answer the following question with just the correct option (A, B, C, or D) without any explanation or additional text.
What is the quotient for the expression 2,314 / 4?
(A) '508', (B) '508 r2', (C) '578', (D) '578 r2'
Answer:","","","","","","","","","","","","","","","","","","","","","",""
"","","","","","","","","","","","","","","","","","","","","","","","","","","","D","","","","","","","","","","","","","","","","","","","","",""
"","","","","","","","","","","","","","","","","","","","","","","","","","","","","false","110","-1","B","true","false","defer","[]","false","0","false","0","{""elementary_mathematics"":[""40/50"",""31/50"",""5/6""],""high_school_mathematics"":[""27/50"",""22/50"",""3 / 5""],""college_mathematics"":[""22/50"",""26/50"",""2 / 5""]}","{""elementary_mathematics"":false}","You should attempt this problem by yourself","null","null","null","null","true",""
"image-keyboard-response","7","3010984","0.0-4.0-2.0","0l470lfexldeb9q","6771bbe322322bf003bae1f2","67b62c430b9240ccd8986e70","67b63156388532ea4853c0e9","1","null","","","null","","","What is the quotient for the expression 2,314 / 4?","[""508"",""508 r2"",""578"",""578 r2""]","B","D","modiste","","D","87","algLinUCB_0.9","diff-topics","elementary_mathematics","The following are multiple choice questions about high_school_mathematics.
Colton and his dad bought a gallon of paint that cost $13. They also bought 2 brushes that cost $9 each. What was the total cost, not including tax, of the brushes and the paint they bought?
(A) $22, (B) $24, (C) $31, (D) $35
Answer: C
Solve for y. y – 2 + 3y = 10
(A) 2, (B) 3, (C) 4, (D) 5
Answer: B
Solve 3 over 2 * w = 66.
(A) 33, (B) 44, (C) 88, (D) 99
Answer: B
Write 5.875 as a mixed number or fraction in simplest form.
(A) 5 and 8 over 9, (B) 5 and 7 over 8, (C) 7 over 8, (D) 5 and 87 over 105
Answer: B
Solve the equation 124 = m + 34.
(A) 158, (B) 90, (C) 88, (D) 4,216
Answer: B
Zelma buys p pounds of bananas for 40 cents per pound. She pays the clerk with a twenty-dollar bill. The clerk subtracts the total cost of the bananas from the twenty-dollar bill to determine the amount of change to give Zelma. Which expression represents the amount of change Zelma should receive?
(A) p - 20, (B) 20 - 40p, (C) 20 - 0.40p, (D) 0.40p - 20
Answer: C
Please answer the following question with just the correct option (A, B, C, or D) without any explanation or additional text.
What is the quotient for the expression 2,314 / 4?
(A) '508', (B) '508 r2', (C) '578', (D) '578 r2'
Answer:","","","","","","","","","","","","","","","","","","","","","","feedback_imgs/Correct.png"
"call-function","8","3010984","0.0-4.0-0.1","0l470lfexldeb9q","6771bbe322322bf003bae1f2","67b62c430b9240ccd8986e70","67b63156388532ea4853c0e9","1","","","","","","defer","Define a binary operation on Z, the set of integers, by the equation m • n = m + n + mn. Which of
the following statements is (are) true about the binary structure (Z, • )?
I. This structure is not a group since the operation is not associative.
II. This structure is not a group since there is no identity element.
III. This structure is not a group since not all elements have an inverse.
IV. This structure is a group.","[""I and II only"",""I and III only"",""II and III only"",""III only""]","D","B","modiste","","D","105","algLinUCB_0.9","diff-topics","college_mathematics","The following are multiple choice questions about high_school_mathematics.
Colton and his dad bought a gallon of paint that cost $13. They also bought 2 brushes that cost $9 each. What was the total cost, not including tax, of the brushes and the paint they bought?
(A) $22, (B) $24, (C) $31, (D) $35
Answer: C
Solve for y. y – 2 + 3y = 10
(A) 2, (B) 3, (C) 4, (D) 5
Answer: B
Solve 3 over 2 * w = 66.
(A) 33, (B) 44, (C) 88, (D) 99
Answer: B
Write 5.875 as a mixed number or fraction in simplest form.
(A) 5 and 8 over 9, (B) 5 and 7 over 8, (C) 7 over 8, (D) 5 and 87 over 105
Answer: B
Solve the equation 124 = m + 34.
(A) 158, (B) 90, (C) 88, (D) 4,216
Answer: B
Zelma buys p pounds of bananas for 40 cents per pound. She pays the clerk with a twenty-dollar bill. The clerk subtracts the total cost of the bananas from the twenty-dollar bill to determine the amount of change to give Zelma. Which expression represents the amount of change Zelma should receive?
(A) p - 20, (B) 20 - 40p, (C) 20 - 0.40p, (D) 0.40p - 20
Answer: C
Please answer the following question with just the correct option (A, B, C, or D) without any explanation or additional text.
Define a binary operation on Z, the set of integers, by the equation m • n = m + n + mn. Which of
the following statements is (are) true about the binary structure (Z, • )?
I. This structure is not a group since the operation is not associative.
II. This structure is not a group since there is no identity element.
III. This structure is not a group since not all elements have an inverse.
IV. This structure is a group.
(A) 'I and II only', (B) 'I and III only', (C) 'II and III only', (D) 'III only'
Answer:","","","","","","","","","","","","","","","","","","","","","",""
"survey-html-form","9","3085636","0.0-4.0-1.1","0l470lfexldeb9q","6771bbe322322bf003bae1f2","67b62c430b9240ccd8986e70","67b63156388532ea4853c0e9","1","74650.19999998808","","","{""mcAnswer"":""A""}","","","Define a binary operation on Z, the set of integers, by the equation m • n = m + n + mn. Which of
the following statements is (are) true about the binary structure (Z, • )?
I. This structure is not a group since the operation is not associative.
II. This structure is not a group since there is no identity element.
III. This structure is not a group since not all elements have an inverse.
IV. This structure is a group.","[""I and II only"",""I and III only"",""II and III only"",""III only""]","D","B","modiste","","D","105","algLinUCB_0.9","diff-topics","college_mathematics","The following are multiple choice questions about high_school_mathematics.
Colton and his dad bought a gallon of paint that cost $13. They also bought 2 brushes that cost $9 each. What was the total cost, not including tax, of the brushes and the paint they bought?
(A) $22, (B) $24, (C) $31, (D) $35
Answer: C
Solve for y. y – 2 + 3y = 10
(A) 2, (B) 3, (C) 4, (D) 5
Answer: B
Solve 3 over 2 * w = 66.
(A) 33, (B) 44, (C) 88, (D) 99
Answer: B
Write 5.875 as a mixed number or fraction in simplest form.
(A) 5 and 8 over 9, (B) 5 and 7 over 8, (C) 7 over 8, (D) 5 and 87 over 105
Answer: B
Solve the equation 124 = m + 34.
(A) 158, (B) 90, (C) 88, (D) 4,216
Answer: B
Zelma buys p pounds of bananas for 40 cents per pound. She pays the clerk with a twenty-dollar bill. The clerk subtracts the total cost of the bananas from the twenty-dollar bill to determine the amount of change to give Zelma. Which expression represents the amount of change Zelma should receive?
(A) p - 20, (B) 20 - 40p, (C) 20 - 0.40p, (D) 0.40p - 20
Answer: C
Please answer the following question with just the correct option (A, B, C, or D) without any explanation or additional text.
Define a binary operation on Z, the set of integers, by the equation m • n = m + n + mn. Which of
the following statements is (are) true about the binary structure (Z, • )?
I. This structure is not a group since the operation is not associative.
II. This structure is not a group since there is no identity element.
III. This structure is not a group since not all elements have an inverse.
IV. This structure is a group.
(A) 'I and II only', (B) 'I and III only', (C) 'II and III only', (D) 'III only'
Answer:","","","","","","","","","","","","","","","","","","","","","",""
"","","","","","","","","","","","","","","","","","","","","","","","","","","","A","","","","","","","","","","","","","","","","","","","","",""
"","","","","","","","","","","","","","","","","","","","","","","","","","","","","false","110","-1","D","false","true","defer","[]","false","0","false","0","{""elementary_mathematics"":[""40/50"",""31/50"",""5/6""],""high_school_mathematics"":[""27/50"",""22/50"",""3 / 5""],""college_mathematics"":[""22/50"",""26/50"",""2/6""]}","{""elementary_mathematics"":false,""college_mathematics"":true}","You should outsource this problem to the AI agent","null","null","false","null","null",""
"image-keyboard-response","10","3087142","0.0-4.0-2.1","0l470lfexldeb9q","6771bbe322322bf003bae1f2","67b62c430b9240ccd8986e70","67b63156388532ea4853c0e9","1","null","","","null","","","Define a binary operation on Z, the set of integers, by the equation m • n = m + n + mn. Which of
the following statements is (are) true about the binary structure (Z, • )?
I. This structure is not a group since the operation is not associative.
II. This structure is not a group since there is no identity element.
III. This structure is not a group since not all elements have an inverse.
IV. This structure is a group.","[""I and II only"",""I and III only"",""II and III only"",""III only""]","D","B","modiste","","D","105","algLinUCB_0.9","diff-topics","college_mathematics","The following are multiple choice questions about high_school_mathematics.
Colton and his dad bought a gallon of paint that cost $13. They also bought 2 brushes that cost $9 each. What was the total cost, not including tax, of the brushes and the paint they bought?
(A) $22, (B) $24, (C) $31, (D) $35
Answer: C
Solve for y. y – 2 + 3y = 10
(A) 2, (B) 3, (C) 4, (D) 5
Answer: B
Solve 3 over 2 * w = 66.
(A) 33, (B) 44, (C) 88, (D) 99
Answer: B
Write 5.875 as a mixed number or fraction in simplest form.
(A) 5 and 8 over 9, (B) 5 and 7 over 8, (C) 7 over 8, (D) 5 and 87 over 105
Answer: B
Solve the equation 124 = m + 34.
(A) 158, (B) 90, (C) 88, (D) 4,216
Answer: B
Zelma buys p pounds of bananas for 40 cents per pound. She pays the clerk with a twenty-dollar bill. The clerk subtracts the total cost of the bananas from the twenty-dollar bill to determine the amount of change to give Zelma. Which expression represents the amount of change Zelma should receive?
(A) p - 20, (B) 20 - 40p, (C) 20 - 0.40p, (D) 0.40p - 20
Answer: C
Please answer the following question with just the correct option (A, B, C, or D) without any explanation or additional text.
Define a binary operation on Z, the set of integers, by the equation m • n = m + n + mn. Which of
the following statements is (are) true about the binary structure (Z, • )?
I. This structure is not a group since the operation is not associative.
II. This structure is not a group since there is no identity element.
III. This structure is not a group since not all elements have an inverse.
IV. This structure is a group.
(A) 'I and II only', (B) 'I and III only', (C) 'II and III only', (D) 'III only'
Answer:","","","","","","","","","","","","","","","","","","","","","","feedback_imgs/Incorrect.png"
"call-function","11","3087143","0.0-4.0-0.2","0l470lfexldeb9q","6771bbe322322bf003bae1f2","67b62c430b9240ccd8986e70","67b63156388532ea4853c0e9","1","","","","","","defer","The symbol 5! means 5cdot 4cdot 3cdot 2cdot 1. What is the greatest odd integer that is a factor of 5! ?","[""5"",""3"",""15"",""31""]","C","B","modiste","","C","70","algLinUCB_0.9","diff-topics","high_school_mathematics","The following are multiple choice questions about high_school_mathematics.
Colton and his dad bought a gallon of paint that cost $13. They also bought 2 brushes that cost $9 each. What was the total cost, not including tax, of the brushes and the paint they bought?
(A) $22, (B) $24, (C) $31, (D) $35
Answer: C
Solve for y. y – 2 + 3y = 10
(A) 2, (B) 3, (C) 4, (D) 5
Answer: B
Solve 3 over 2 * w = 66.
(A) 33, (B) 44, (C) 88, (D) 99
Answer: B
Write 5.875 as a mixed number or fraction in simplest form.
(A) 5 and 8 over 9, (B) 5 and 7 over 8, (C) 7 over 8, (D) 5 and 87 over 105
Answer: B
Solve the equation 124 = m + 34.
(A) 158, (B) 90, (C) 88, (D) 4,216
Answer: B
Zelma buys p pounds of bananas for 40 cents per pound. She pays the clerk with a twenty-dollar bill. The clerk subtracts the total cost of the bananas from the twenty-dollar bill to determine the amount of change to give Zelma. Which expression represents the amount of change Zelma should receive?
(A) p - 20, (B) 20 - 40p, (C) 20 - 0.40p, (D) 0.40p - 20
Answer: C
Please answer the following question with just the correct option (A, B, C, or D) without any explanation or additional text.
The symbol 5! means 5cdot 4cdot 3cdot 2cdot 1. What is the greatest odd integer that is a factor of 5! ?
(A) '5', (B) '3', (C) '15', (D) '31'
Answer:","","","","","","","","","","","","true","2","","","","","","","","",""
"survey-html-form","12","3124051","0.0-4.0-1.2","0l470lfexldeb9q","6771bbe322322bf003bae1f2","67b62c430b9240ccd8986e70","67b63156388532ea4853c0e9","1","36907.59999999404","","","{""mcAnswer"":""C""}","","","The symbol 5! means 5cdot 4cdot 3cdot 2cdot 1. What is the greatest odd integer that is a factor of 5! ?","[""5"",""3"",""15"",""31""]","C","B","modiste","","C","70","algLinUCB_0.9","diff-topics","high_school_mathematics","The following are multiple choice questions about high_school_mathematics.
Colton and his dad bought a gallon of paint that cost $13. They also bought 2 brushes that cost $9 each. What was the total cost, not including tax, of the brushes and the paint they bought?
(A) $22, (B) $24, (C) $31, (D) $35
Answer: C
Solve for y. y – 2 + 3y = 10
(A) 2, (B) 3, (C) 4, (D) 5
Answer: B
Solve 3 over 2 * w = 66.
(A) 33, (B) 44, (C) 88, (D) 99
Answer: B
Write 5.875 as a mixed number or fraction in simplest form.
(A) 5 and 8 over 9, (B) 5 and 7 over 8, (C) 7 over 8, (D) 5 and 87 over 105
Answer: B
Solve the equation 124 = m + 34.
(A) 158, (B) 90, (C) 88, (D) 4,216
Answer: B
Zelma buys p pounds of bananas for 40 cents per pound. She pays the clerk with a twenty-dollar bill. The clerk subtracts the total cost of the bananas from the twenty-dollar bill to determine the amount of change to give Zelma. Which expression represents the amount of change Zelma should receive?
(A) p - 20, (B) 20 - 40p, (C) 20 - 0.40p, (D) 0.40p - 20
Answer: C
Please answer the following question with just the correct option (A, B, C, or D) without any explanation or additional text.
The symbol 5! means 5cdot 4cdot 3cdot 2cdot 1. What is the greatest odd integer that is a factor of 5! ?
(A) '5', (B) '3', (C) '15', (D) '31'
Answer:","","","","","","","","","","","","","","","","","","","","","",""
"","","","","","","","","","","","","","","","","","","","","","","","","","","","C","","","","","","","","","","","","","","","","","","","","",""
"","","","","","","","","","","","","","","","","","","","","","","","","","","","","false","117","-1","C","true","true","defer","[]","false","0","true","2","{""elementary_mathematics"":[""40/50"",""31/50"",""5/6""],""high_school_mathematics"":[""27/50"",""23/51"",""3 / 5""],""college_mathematics"":[""22/50"",""26/50"",""2/6""]}","{""elementary_mathematics"":false,""college_mathematics"":true,""high_school_mathematics"":false}","You should attempt this problem by yourself","false","null","null","null","false",""
"image-keyboard-response","13","3125563","0.0-4.0-2.2","0l470lfexldeb9q","6771bbe322322bf003bae1f2","67b62c430b9240ccd8986e70","67b63156388532ea4853c0e9","1","null","","","null","","","The symbol 5! means 5cdot 4cdot 3cdot 2cdot 1. What is the greatest odd integer that is a factor of 5! ?","[""5"",""3"",""15"",""31""]","C","B","modiste","","C","70","algLinUCB_0.9","diff-topics","high_school_mathematics","The following are multiple choice questions about high_school_mathematics.
Colton and his dad bought a gallon of paint that cost $13. They also bought 2 brushes that cost $9 each. What was the total cost, not including tax, of the brushes and the paint they bought?
(A) $22, (B) $24, (C) $31, (D) $35
Answer: C
Solve for y. y – 2 + 3y = 10
(A) 2, (B) 3, (C) 4, (D) 5
Answer: B
Solve 3 over 2 * w = 66.
(A) 33, (B) 44, (C) 88, (D) 99
Answer: B
Write 5.875 as a mixed number or fraction in simplest form.
(A) 5 and 8 over 9, (B) 5 and 7 over 8, (C) 7 over 8, (D) 5 and 87 over 105
Answer: B
Solve the equation 124 = m + 34.
(A) 158, (B) 90, (C) 88, (D) 4,216
Answer: B
Zelma buys p pounds of bananas for 40 cents per pound. She pays the clerk with a twenty-dollar bill. The clerk subtracts the total cost of the bananas from the twenty-dollar bill to determine the amount of change to give Zelma. Which expression represents the amount of change Zelma should receive?
(A) p - 20, (B) 20 - 40p, (C) 20 - 0.40p, (D) 0.40p - 20
Answer: C
Please answer the following question with just the correct option (A, B, C, or D) without any explanation or additional text.
The symbol 5! means 5cdot 4cdot 3cdot 2cdot 1. What is the greatest odd integer that is a factor of 5! ?
(A) '5', (B) '3', (C) '15', (D) '31'
Answer:","","","","","","","","","","","","","","","","","","","","","","feedback_imgs/Correct.png"
"call-function","14","3125563","0.0-4.0-0.3","0l470lfexldeb9q","6771bbe322322bf003bae1f2","67b62c430b9240ccd8986e70","67b63156388532ea4853c0e9","1","","","","","","defer","Let C be the circle in the yz-plane whose equation is (y - 3)^2 + z^2 = 1. If C is revolved around the z-axis, the surface generated is a torus. What is the equation of this torus?","[""x^2 + y^2 + z^2 + 8 = 6y"",""(x^2 + y^2 + z^2)^2 = 8 + 36(x^2 + z^2)"",""(x^2 + y^2 + z^2 + 8)^2 = 36(x^2 + z^2)"",""(x^2 + y^2 + z^2 + 8)^2 = 36(x^2 + y^2)""]","B","B","modiste","","D","115","algLinUCB_0.9","diff-topics","college_mathematics","The following are multiple choice questions about high_school_mathematics.
Colton and his dad bought a gallon of paint that cost $13. They also bought 2 brushes that cost $9 each. What was the total cost, not including tax, of the brushes and the paint they bought?
(A) $22, (B) $24, (C) $31, (D) $35
Answer: C
Solve for y. y – 2 + 3y = 10
(A) 2, (B) 3, (C) 4, (D) 5
Answer: B
Solve 3 over 2 * w = 66.
(A) 33, (B) 44, (C) 88, (D) 99
Answer: B
Write 5.875 as a mixed number or fraction in simplest form.
(A) 5 and 8 over 9, (B) 5 and 7 over 8, (C) 7 over 8, (D) 5 and 87 over 105
Answer: B
Solve the equation 124 = m + 34.
(A) 158, (B) 90, (C) 88, (D) 4,216
Answer: B
Zelma buys p pounds of bananas for 40 cents per pound. She pays the clerk with a twenty-dollar bill. The clerk subtracts the total cost of the bananas from the twenty-dollar bill to determine the amount of change to give Zelma. Which expression represents the amount of change Zelma should receive?
(A) p - 20, (B) 20 - 40p, (C) 20 - 0.40p, (D) 0.40p - 20
Answer: C
Please answer the following question with just the correct option (A, B, C, or D) without any explanation or additional text.
Let C be the circle in the yz-plane whose equation is (y - 3)^2 + z^2 = 1. If C is revolved around the z-axis, the surface generated is a torus. What is the equation of this torus?
(A) 'x^2 + y^2 + z^2 + 8 = 6y', (B) '(x^2 + y^2 + z^2)^2 = 8 + 36(x^2 + z^2)', (C) '(x^2 + y^2 + z^2 + 8)^2 = 36(x^2 + z^2)', (D) '(x^2 + y^2 + z^2 + 8)^2 = 36(x^2 + y^2)'
Answer:","","","","","","","","","","","","true","2","","","","","","","","",""
"survey-html-form","15","3147548","0.0-4.0-1.3","0l470lfexldeb9q","6771bbe322322bf003bae1f2","67b62c430b9240ccd8986e70","67b63156388532ea4853c0e9","1","21983.59999999404","","","{""mcAnswer"":""B""}","","","Let C be the circle in the yz-plane whose equation is (y - 3)^2 + z^2 = 1. If C is revolved around the z-axis, the surface generated is a torus. What is the equation of this torus?","[""x^2 + y^2 + z^2 + 8 = 6y"",""(x^2 + y^2 + z^2)^2 = 8 + 36(x^2 + z^2)"",""(x^2 + y^2 + z^2 + 8)^2 = 36(x^2 + z^2)"",""(x^2 + y^2 + z^2 + 8)^2 = 36(x^2 + y^2)""]","B","B","modiste","","D","115","algLinUCB_0.9","diff-topics","college_mathematics","The following are multiple choice questions about high_school_mathematics.
Colton and his dad bought a gallon of paint that cost $13. They also bought 2 brushes that cost $9 each. What was the total cost, not including tax, of the brushes and the paint they bought?
(A) $22, (B) $24, (C) $31, (D) $35
Answer: C
Solve for y. y – 2 + 3y = 10
(A) 2, (B) 3, (C) 4, (D) 5
Answer: B
Solve 3 over 2 * w = 66.
(A) 33, (B) 44, (C) 88, (D) 99
Answer: B
Write 5.875 as a mixed number or fraction in simplest form.
(A) 5 and 8 over 9, (B) 5 and 7 over 8, (C) 7 over 8, (D) 5 and 87 over 105
Answer: B
Solve the equation 124 = m + 34.
(A) 158, (B) 90, (C) 88, (D) 4,216
Answer: B
Zelma buys p pounds of bananas for 40 cents per pound. She pays the clerk with a twenty-dollar bill. The clerk subtracts the total cost of the bananas from the twenty-dollar bill to determine the amount of change to give Zelma. Which expression represents the amount of change Zelma should receive?
(A) p - 20, (B) 20 - 40p, (C) 20 - 0.40p, (D) 0.40p - 20
Answer: C
Please answer the following question with just the correct option (A, B, C, or D) without any explanation or additional text.
Let C be the circle in the yz-plane whose equation is (y - 3)^2 + z^2 = 1. If C is revolved around the z-axis, the surface generated is a torus. What is the equation of this torus?
(A) 'x^2 + y^2 + z^2 + 8 = 6y', (B) '(x^2 + y^2 + z^2)^2 = 8 + 36(x^2 + z^2)', (C) '(x^2 + y^2 + z^2 + 8)^2 = 36(x^2 + z^2)', (D) '(x^2 + y^2 + z^2 + 8)^2 = 36(x^2 + y^2)'
Answer:","","","","","","","","","","","","","","","","","","","","","",""
"","","","","","","","","","","","","","","","","","","","","","","","","","","","B","","","","","","","","","","","","","","","","","","","","",""
"","","","","","","","","","","","","","","","","","","","","","","","","","","","","false","114","-1","B","false","false","defer","[]","false","0","true","2","{""elementary_mathematics"":[""40/50"",""31/50"",""5/6""],""high_school_mathematics"":[""27/50"",""23/51"",""3 / 5""],""college_mathematics"":[""22/50"",""26/51"",""2/6""]}","{""elementary_mathematics"":false,""college_mathematics"":false,""high_school_mathematics"":false}","You were wrong by yourself on college_mathematics last time. You should outsource this problem to the AI agent","false","null","true","null","null",""
"image-keyboard-response","16","3149060","0.0-4.0-2.3","0l470lfexldeb9q","6771bbe322322bf003bae1f2","67b62c430b9240ccd8986e70","67b63156388532ea4853c0e9","1","null","","","null","","","Let C be the circle in the yz-plane whose equation is (y - 3)^2 + z^2 = 1. If C is revolved around the z-axis, the surface generated is a torus. What is the equation of this torus?","[""x^2 + y^2 + z^2 + 8 = 6y"",""(x^2 + y^2 + z^2)^2 = 8 + 36(x^2 + z^2)"",""(x^2 + y^2 + z^2 + 8)^2 = 36(x^2 + z^2)"",""(x^2 + y^2 + z^2 + 8)^2 = 36(x^2 + y^2)""]","B","B","modiste","","D","115","algLinUCB_0.9","diff-topics","college_mathematics","The following are multiple choice questions about high_school_mathematics.
Colton and his dad bought a gallon of paint that cost $13. They also bought 2 brushes that cost $9 each. What was the total cost, not including tax, of the brushes and the paint they bought?
(A) $22, (B) $24, (C) $31, (D) $35
Answer: C
Solve for y. y – 2 + 3y = 10
(A) 2, (B) 3, (C) 4, (D) 5
Answer: B
Solve 3 over 2 * w = 66.
(A) 33, (B) 44, (C) 88, (D) 99
Answer: B
Write 5.875 as a mixed number or fraction in simplest form.
(A) 5 and 8 over 9, (B) 5 and 7 over 8, (C) 7 over 8, (D) 5 and 87 over 105
Answer: B
Solve the equation 124 = m + 34.
(A) 158, (B) 90, (C) 88, (D) 4,216
Answer: B
Zelma buys p pounds of bananas for 40 cents per pound. She pays the clerk with a twenty-dollar bill. The clerk subtracts the total cost of the bananas from the twenty-dollar bill to determine the amount of change to give Zelma. Which expression represents the amount of change Zelma should receive?
(A) p - 20, (B) 20 - 40p, (C) 20 - 0.40p, (D) 0.40p - 20
Answer: C
Please answer the following question with just the correct option (A, B, C, or D) without any explanation or additional text.
Let C be the circle in the yz-plane whose equation is (y - 3)^2 + z^2 = 1. If C is revolved around the z-axis, the surface generated is a torus. What is the equation of this torus?
(A) 'x^2 + y^2 + z^2 + 8 = 6y', (B) '(x^2 + y^2 + z^2)^2 = 8 + 36(x^2 + z^2)', (C) '(x^2 + y^2 + z^2 + 8)^2 = 36(x^2 + z^2)', (D) '(x^2 + y^2 + z^2 + 8)^2 = 36(x^2 + y^2)'
Answer:","","","","","","","","","","","","","","","","","","","","","","feedback_imgs/Incorrect.png"
"call-function","17","3149060","0.0-4.0-0.4","0l470lfexldeb9q","6771bbe322322bf003bae1f2","67b62c430b9240ccd8986e70","67b63156388532ea4853c0e9","1","","","","","","defer","A coach rounded the number of runners at a track meet to the nearest 10. The rounded number of runners is 400. Which number could be the actual number of runners at the track meet?","[""382"",""397"",""406"",""447""]","B","B","modiste","","B","81","algLinUCB_0.9","diff-topics","elementary_mathematics","The following are multiple choice questions about high_school_mathematics.
Colton and his dad bought a gallon of paint that cost $13. They also bought 2 brushes that cost $9 each. What was the total cost, not including tax, of the brushes and the paint they bought?
(A) $22, (B) $24, (C) $31, (D) $35
Answer: C
Solve for y. y – 2 + 3y = 10
(A) 2, (B) 3, (C) 4, (D) 5
Answer: B
Solve 3 over 2 * w = 66.
(A) 33, (B) 44, (C) 88, (D) 99
Answer: B
Write 5.875 as a mixed number or fraction in simplest form.
(A) 5 and 8 over 9, (B) 5 and 7 over 8, (C) 7 over 8, (D) 5 and 87 over 105
Answer: B
Solve the equation 124 = m + 34.
(A) 158, (B) 90, (C) 88, (D) 4,216
Answer: B
Zelma buys p pounds of bananas for 40 cents per pound. She pays the clerk with a twenty-dollar bill. The clerk subtracts the total cost of the bananas from the twenty-dollar bill to determine the amount of change to give Zelma. Which expression represents the amount of change Zelma should receive?
(A) p - 20, (B) 20 - 40p, (C) 20 - 0.40p, (D) 0.40p - 20
Answer: C
Please answer the following question with just the correct option (A, B, C, or D) without any explanation or additional text.
A coach rounded the number of runners at a track meet to the nearest 10. The rounded number of runners is 400. Which number could be the actual number of runners at the track meet?
(A) '382', (B) '397', (C) '406', (D) '447'
Answer:","","","","","","","","","","","","","","","","","","","","","",""
"survey-html-form","18","3198748","0.0-4.0-1.4","0l470lfexldeb9q","6771bbe322322bf003bae1f2","67b62c430b9240ccd8986e70","67b63156388532ea4853c0e9","1","49686.59999999404","","","{""mcAnswer"":""B""}","","","A coach rounded the number of runners at a track meet to the nearest 10. The rounded number of runners is 400. Which number could be the actual number of runners at the track meet?","[""382"",""397"",""406"",""447""]","B","B","modiste","","B","81","algLinUCB_0.9","diff-topics","elementary_mathematics","The following are multiple choice questions about high_school_mathematics.
Colton and his dad bought a gallon of paint that cost $13. They also bought 2 brushes that cost $9 each. What was the total cost, not including tax, of the brushes and the paint they bought?
(A) $22, (B) $24, (C) $31, (D) $35
Answer: C
Solve for y. y – 2 + 3y = 10
(A) 2, (B) 3, (C) 4, (D) 5
Answer: B
Solve 3 over 2 * w = 66.
(A) 33, (B) 44, (C) 88, (D) 99
Answer: B
Write 5.875 as a mixed number or fraction in simplest form.
(A) 5 and 8 over 9, (B) 5 and 7 over 8, (C) 7 over 8, (D) 5 and 87 over 105
Answer: B
Solve the equation 124 = m + 34.
(A) 158, (B) 90, (C) 88, (D) 4,216
Answer: B
Zelma buys p pounds of bananas for 40 cents per pound. She pays the clerk with a twenty-dollar bill. The clerk subtracts the total cost of the bananas from the twenty-dollar bill to determine the amount of change to give Zelma. Which expression represents the amount of change Zelma should receive?
(A) p - 20, (B) 20 - 40p, (C) 20 - 0.40p, (D) 0.40p - 20
Answer: C
Please answer the following question with just the correct option (A, B, C, or D) without any explanation or additional text.
A coach rounded the number of runners at a track meet to the nearest 10. The rounded number of runners is 400. Which number could be the actual number of runners at the track meet?
(A) '382', (B) '397', (C) '406', (D) '447'
Answer:","","","","","","","","","","","","","","","","","","","","","",""
"","","","","","","","","","","","","","","","","","","","","","","","","","","","B","","","","","","","","","","","","","","","","","","","","",""
"","","","","","","","","","","","","","","","","","","","","","","","","","","","","false","124","-1","B","true","true","defer","[]","false","0","false","0","{""elementary_mathematics"":[""40/50"",""31/50"",""6/7""],""high_school_mathematics"":[""27/50"",""23/51"",""3 / 5""],""college_mathematics"":[""22/50"",""26/51"",""2/6""]}","{""elementary_mathematics"":false,""college_mathematics"":false,""high_school_mathematics"":false}","You should attempt this problem by yourself","null","null","null","null","true",""
"image-keyboard-response","19","3200259","0.0-4.0-2.4","0l470lfexldeb9q","6771bbe322322bf003bae1f2","67b62c430b9240ccd8986e70","67b63156388532ea4853c0e9","1","null","","","null","","","A coach rounded the number of runners at a track meet to the nearest 10. The rounded number of runners is 400. Which number could be the actual number of runners at the track meet?","[""382"",""397"",""406"",""447""]","B","B","modiste","","B","81","algLinUCB_0.9","diff-topics","elementary_mathematics","The following are multiple choice questions about high_school_mathematics.
Colton and his dad bought a gallon of paint that cost $13. They also bought 2 brushes that cost $9 each. What was the total cost, not including tax, of the brushes and the paint they bought?
(A) $22, (B) $24, (C) $31, (D) $35
Answer: C
Solve for y. y – 2 + 3y = 10
(A) 2, (B) 3, (C) 4, (D) 5
Answer: B
Solve 3 over 2 * w = 66.
(A) 33, (B) 44, (C) 88, (D) 99
Answer: B
Write 5.875 as a mixed number or fraction in simplest form.
(A) 5 and 8 over 9, (B) 5 and 7 over 8, (C) 7 over 8, (D) 5 and 87 over 105
Answer: B
Solve the equation 124 = m + 34.
(A) 158, (B) 90, (C) 88, (D) 4,216
Answer: B
Zelma buys p pounds of bananas for 40 cents per pound. She pays the clerk with a twenty-dollar bill. The clerk subtracts the total cost of the bananas from the twenty-dollar bill to determine the amount of change to give Zelma. Which expression represents the amount of change Zelma should receive?
(A) p - 20, (B) 20 - 40p, (C) 20 - 0.40p, (D) 0.40p - 20
Answer: C
Please answer the following question with just the correct option (A, B, C, or D) without any explanation or additional text.
A coach rounded the number of runners at a track meet to the nearest 10. The rounded number of runners is 400. Which number could be the actual number of runners at the track meet?
(A) '382', (B) '397', (C) '406', (D) '447'
Answer:","","","","","","","","","","","","","","","","","","","","","","feedback_imgs/Correct.png"
"call-function","20","3200260","0.0-4.0-0.5","0l470lfexldeb9q","6771bbe322322bf003bae1f2","67b62c430b9240ccd8986e70","67b63156388532ea4853c0e9","1","","","","","","defer","Write 8 and 2 over 4 as an improper fraction in simplest form.","[""17 over 2"",""34 over 4"",""17 over 4"",""19 over 2""]","B","A","modiste","","A","92","algLinUCB_0.9","diff-topics","elementary_mathematics","The following are multiple choice questions about high_school_mathematics.
Colton and his dad bought a gallon of paint that cost $13. They also bought 2 brushes that cost $9 each. What was the total cost, not including tax, of the brushes and the paint they bought?
(A) $22, (B) $24, (C) $31, (D) $35
Answer: C
Solve for y. y – 2 + 3y = 10
(A) 2, (B) 3, (C) 4, (D) 5
Answer: B
Solve 3 over 2 * w = 66.
(A) 33, (B) 44, (C) 88, (D) 99
Answer: B
Write 5.875 as a mixed number or fraction in simplest form.
(A) 5 and 8 over 9, (B) 5 and 7 over 8, (C) 7 over 8, (D) 5 and 87 over 105
Answer: B
Solve the equation 124 = m + 34.
(A) 158, (B) 90, (C) 88, (D) 4,216
Answer: B
Zelma buys p pounds of bananas for 40 cents per pound. She pays the clerk with a twenty-dollar bill. The clerk subtracts the total cost of the bananas from the twenty-dollar bill to determine the amount of change to give Zelma. Which expression represents the amount of change Zelma should receive?
(A) p - 20, (B) 20 - 40p, (C) 20 - 0.40p, (D) 0.40p - 20
Answer: C
Please answer the following question with just the correct option (A, B, C, or D) without any explanation or additional text.
Write 8 and 2 over 4 as an improper fraction in simplest form.
(A) '17 over 2', (B) '34 over 4', (C) '17 over 4', (D) '19 over 2'
Answer:","","","","","","","","","","","","","","","","","","","","","",""
"survey-html-form","21","3322188","0.0-4.0-1.5","0l470lfexldeb9q","6771bbe322322bf003bae1f2","67b62c430b9240ccd8986e70","67b63156388532ea4853c0e9","1","121927.19999998808","","","{""mcAnswer"":""A""}","","","Write 8 and 2 over 4 as an improper fraction in simplest form.","[""17 over 2"",""34 over 4"",""17 over 4"",""19 over 2""]","B","A","modiste","","A","92","algLinUCB_0.9","diff-topics","elementary_mathematics","The following are multiple choice questions about high_school_mathematics.
Colton and his dad bought a gallon of paint that cost $13. They also bought 2 brushes that cost $9 each. What was the total cost, not including tax, of the brushes and the paint they bought?
(A) $22, (B) $24, (C) $31, (D) $35
Answer: C
Solve for y. y – 2 + 3y = 10
(A) 2, (B) 3, (C) 4, (D) 5
Answer: B
Solve 3 over 2 * w = 66.
(A) 33, (B) 44, (C) 88, (D) 99
Answer: B
Write 5.875 as a mixed number or fraction in simplest form.
(A) 5 and 8 over 9, (B) 5 and 7 over 8, (C) 7 over 8, (D) 5 and 87 over 105
Answer: B
Solve the equation 124 = m + 34.
(A) 158, (B) 90, (C) 88, (D) 4,216
Answer: B
Zelma buys p pounds of bananas for 40 cents per pound. She pays the clerk with a twenty-dollar bill. The clerk subtracts the total cost of the bananas from the twenty-dollar bill to determine the amount of change to give Zelma. Which expression represents the amount of change Zelma should receive?
(A) p - 20, (B) 20 - 40p, (C) 20 - 0.40p, (D) 0.40p - 20
Answer: C
Please answer the following question with just the correct option (A, B, C, or D) without any explanation or additional text.
Write 8 and 2 over 4 as an improper fraction in simplest form.
(A) '17 over 2', (B) '34 over 4', (C) '17 over 4', (D) '19 over 2'
Answer:","","","","","","","","","","","","","","","","","","","","","",""
"","","","","","","","","","","","","","","","","","","","","","","","","","","","A","","","","","","","","","","","","","","","","","","","","",""
"","","","","","","","","","","","","","","","","","","","","","","","","","","","","false","134","-1","B","true","false","defer","[]","false","0","false","0","{""elementary_mathematics"":[""40/50"",""31/50"",""7/8""],""high_school_mathematics"":[""27/50"",""23/51"",""3 / 5""],""college_mathematics"":[""22/50"",""26/51"",""2/6""]}","{""elementary_mathematics"":false,""college_mathematics"":false,""high_school_mathematics"":false}","You should attempt this problem by yourself","null","null","null","null","true",""
"image-keyboard-response","22","3323691","0.0-4.0-2.5","0l470lfexldeb9q","6771bbe322322bf003bae1f2","67b62c430b9240ccd8986e70","67b63156388532ea4853c0e9","1","null","","","null","","","Write 8 and 2 over 4 as an improper fraction in simplest form.","[""17 over 2"",""34 over 4"",""17 over 4"",""19 over 2""]","B","A","modiste","","A","92","algLinUCB_0.9","diff-topics","elementary_mathematics","The following are multiple choice questions about high_school_mathematics.
Colton and his dad bought a gallon of paint that cost $13. They also bought 2 brushes that cost $9 each. What was the total cost, not including tax, of the brushes and the paint they bought?
(A) $22, (B) $24, (C) $31, (D) $35
Answer: C
Solve for y. y – 2 + 3y = 10
(A) 2, (B) 3, (C) 4, (D) 5
Answer: B
Solve 3 over 2 * w = 66.
(A) 33, (B) 44, (C) 88, (D) 99
Answer: B
Write 5.875 as a mixed number or fraction in simplest form.
(A) 5 and 8 over 9, (B) 5 and 7 over 8, (C) 7 over 8, (D) 5 and 87 over 105
Answer: B
Solve the equation 124 = m + 34.
(A) 158, (B) 90, (C) 88, (D) 4,216
Answer: B
Zelma buys p pounds of bananas for 40 cents per pound. She pays the clerk with a twenty-dollar bill. The clerk subtracts the total cost of the bananas from the twenty-dollar bill to determine the amount of change to give Zelma. Which expression represents the amount of change Zelma should receive?
(A) p - 20, (B) 20 - 40p, (C) 20 - 0.40p, (D) 0.40p - 20
Answer: C
Please answer the following question with just the correct option (A, B, C, or D) without any explanation or additional text.
Write 8 and 2 over 4 as an improper fraction in simplest form.
(A) '17 over 2', (B) '34 over 4', (C) '17 over 4', (D) '19 over 2'
Answer:","","","","","","","","","","","","","","","","","","","","","","feedback_imgs/Correct.png"
"call-function","23","3323692","0.0-4.0-0.6","0l470lfexldeb9q","6771bbe322322bf003bae1f2","67b62c430b9240ccd8986e70","67b63156388532ea4853c0e9","1","","","","","","defer","What is the ones digit of 1 cdot 2 cdot 3 cdot 4 cdot 5 cdot 6 cdot 7 cdot 8 cdot 9?","[""1"",""2"",""0"",""5""]","C","B","modiste","","C","75","algLinUCB_0.9","diff-topics","high_school_mathematics","The following are multiple choice questions about high_school_mathematics.
Colton and his dad bought a gallon of paint that cost $13. They also bought 2 brushes that cost $9 each. What was the total cost, not including tax, of the brushes and the paint they bought?
(A) $22, (B) $24, (C) $31, (D) $35
Answer: C
Solve for y. y – 2 + 3y = 10
(A) 2, (B) 3, (C) 4, (D) 5
Answer: B
Solve 3 over 2 * w = 66.
(A) 33, (B) 44, (C) 88, (D) 99
Answer: B
Write 5.875 as a mixed number or fraction in simplest form.
(A) 5 and 8 over 9, (B) 5 and 7 over 8, (C) 7 over 8, (D) 5 and 87 over 105
Answer: B
Solve the equation 124 = m + 34.
(A) 158, (B) 90, (C) 88, (D) 4,216
Answer: B
Zelma buys p pounds of bananas for 40 cents per pound. She pays the clerk with a twenty-dollar bill. The clerk subtracts the total cost of the bananas from the twenty-dollar bill to determine the amount of change to give Zelma. Which expression represents the amount of change Zelma should receive?
(A) p - 20, (B) 20 - 40p, (C) 20 - 0.40p, (D) 0.40p - 20
Answer: C
Please answer the following question with just the correct option (A, B, C, or D) without any explanation or additional text.
What is the ones digit of 1 cdot 2 cdot 3 cdot 4 cdot 5 cdot 6 cdot 7 cdot 8 cdot 9?
(A) '1', (B) '2', (C) '0', (D) '5'
Answer:","","","","","","","","","","","","true","2","","","","","","","","",""
"survey-html-form","24","3337492","0.0-4.0-1.6","0l470lfexldeb9q","6771bbe322322bf003bae1f2","67b62c430b9240ccd8986e70","67b63156388532ea4853c0e9","1","13798.90000000596","","","{""mcAnswer"":""C""}","","","What is the ones digit of 1 cdot 2 cdot 3 cdot 4 cdot 5 cdot 6 cdot 7 cdot 8 cdot 9?","[""1"",""2"",""0"",""5""]","C","B","modiste","","C","75","algLinUCB_0.9","diff-topics","high_school_mathematics","The following are multiple choice questions about high_school_mathematics.
Colton and his dad bought a gallon of paint that cost $13. They also bought 2 brushes that cost $9 each. What was the total cost, not including tax, of the brushes and the paint they bought?
(A) $22, (B) $24, (C) $31, (D) $35
Answer: C
Solve for y. y – 2 + 3y = 10
(A) 2, (B) 3, (C) 4, (D) 5
Answer: B
Solve 3 over 2 * w = 66.
(A) 33, (B) 44, (C) 88, (D) 99
Answer: B
Write 5.875 as a mixed number or fraction in simplest form.
(A) 5 and 8 over 9, (B) 5 and 7 over 8, (C) 7 over 8, (D) 5 and 87 over 105
Answer: B
Solve the equation 124 = m + 34.
(A) 158, (B) 90, (C) 88, (D) 4,216
Answer: B
Zelma buys p pounds of bananas for 40 cents per pound. She pays the clerk with a twenty-dollar bill. The clerk subtracts the total cost of the bananas from the twenty-dollar bill to determine the amount of change to give Zelma. Which expression represents the amount of change Zelma should receive?
(A) p - 20, (B) 20 - 40p, (C) 20 - 0.40p, (D) 0.40p - 20
Answer: C
Please answer the following question with just the correct option (A, B, C, or D) without any explanation or additional text.
What is the ones digit of 1 cdot 2 cdot 3 cdot 4 cdot 5 cdot 6 cdot 7 cdot 8 cdot 9?
(A) '1', (B) '2', (C) '0', (D) '5'
Answer:","","","","","","","","","","","","","","","","","","","","","",""
"","","","","","","","","","","","","","","","","","","","","","","","","","","","C","","","","","","","","","","","","","","","","","","","","",""
"","","","","","","","","","","","","","","","","","","","","","","","","","","","","false","141","-1","C","true","true","defer","[]","false","0","true","2","{""elementary_mathematics"":[""40/50"",""31/50"",""7/8""],""high_school_mathematics"":[""27/50"",""24/52"",""3 / 5""],""college_mathematics"":[""22/50"",""26/51"",""2/6""]}","{""elementary_mathematics"":false,""college_mathematics"":false,""high_school_mathematics"":false}","You should attempt this problem by yourself","false","null","null","null","false",""
"image-keyboard-response","25","3338995","0.0-4.0-2.6","0l470lfexldeb9q","6771bbe322322bf003bae1f2","67b62c430b9240ccd8986e70","67b63156388532ea4853c0e9","1","null","","","null","","","What is the ones digit of 1 cdot 2 cdot 3 cdot 4 cdot 5 cdot 6 cdot 7 cdot 8 cdot 9?","[""1"",""2"",""0"",""5""]","C","B","modiste","","C","75","algLinUCB_0.9","diff-topics","high_school_mathematics","The following are multiple choice questions about high_school_mathematics.
Colton and his dad bought a gallon of paint that cost $13. They also bought 2 brushes that cost $9 each. What was the total cost, not including tax, of the brushes and the paint they bought?
(A) $22, (B) $24, (C) $31, (D) $35
Answer: C
Solve for y. y – 2 + 3y = 10
(A) 2, (B) 3, (C) 4, (D) 5
Answer: B
Solve 3 over 2 * w = 66.
(A) 33, (B) 44, (C) 88, (D) 99
Answer: B
Write 5.875 as a mixed number or fraction in simplest form.
(A) 5 and 8 over 9, (B) 5 and 7 over 8, (C) 7 over 8, (D) 5 and 87 over 105
Answer: B
Solve the equation 124 = m + 34.
(A) 158, (B) 90, (C) 88, (D) 4,216
Answer: B
Zelma buys p pounds of bananas for 40 cents per pound. She pays the clerk with a twenty-dollar bill. The clerk subtracts the total cost of the bananas from the twenty-dollar bill to determine the amount of change to give Zelma. Which expression represents the amount of change Zelma should receive?
(A) p - 20, (B) 20 - 40p, (C) 20 - 0.40p, (D) 0.40p - 20
Answer: C
Please answer the following question with just the correct option (A, B, C, or D) without any explanation or additional text.
What is the ones digit of 1 cdot 2 cdot 3 cdot 4 cdot 5 cdot 6 cdot 7 cdot 8 cdot 9?
(A) '1', (B) '2', (C) '0', (D) '5'
Answer:","","","","","","","","","","","","","","","","","","","","","","feedback_imgs/Correct.png"
"call-function","26","3338995","0.0-4.0-0.7","0l470lfexldeb9q","6771bbe322322bf003bae1f2","67b62c430b9240ccd8986e70","67b63156388532ea4853c0e9","1","","","","","","defer","How many ways are there to put 4 distinguishable balls into 2 indistinguishable boxes?","[""7"",""11"",""16"",""8""]","B","D","modiste","","D","67","algLinUCB_0.9","diff-topics","high_school_mathematics","The following are multiple choice questions about high_school_mathematics.
Colton and his dad bought a gallon of paint that cost $13. They also bought 2 brushes that cost $9 each. What was the total cost, not including tax, of the brushes and the paint they bought?
(A) $22, (B) $24, (C) $31, (D) $35
Answer: C
Solve for y. y – 2 + 3y = 10
(A) 2, (B) 3, (C) 4, (D) 5
Answer: B
Solve 3 over 2 * w = 66.
(A) 33, (B) 44, (C) 88, (D) 99
Answer: B
Write 5.875 as a mixed number or fraction in simplest form.
(A) 5 and 8 over 9, (B) 5 and 7 over 8, (C) 7 over 8, (D) 5 and 87 over 105
Answer: B
Solve the equation 124 = m + 34.
(A) 158, (B) 90, (C) 88, (D) 4,216
Answer: B
Zelma buys p pounds of bananas for 40 cents per pound. She pays the clerk with a twenty-dollar bill. The clerk subtracts the total cost of the bananas from the twenty-dollar bill to determine the amount of change to give Zelma. Which expression represents the amount of change Zelma should receive?
(A) p - 20, (B) 20 - 40p, (C) 20 - 0.40p, (D) 0.40p - 20
Answer: C
Please answer the following question with just the correct option (A, B, C, or D) without any explanation or additional text.
How many ways are there to put 4 distinguishable balls into 2 indistinguishable boxes?
(A) '7', (B) '11', (C) '16', (D) '8'
Answer:","","","","","","","","","","","","","","","","","","","","","",""
"survey-html-form","27","3393715","0.0-4.0-1.7","0l470lfexldeb9q","6771bbe322322bf003bae1f2","67b62c430b9240ccd8986e70","67b63156388532ea4853c0e9","1","54719","","","{""mcAnswer"":""C""}","","","How many ways are there to put 4 distinguishable balls into 2 indistinguishable boxes?","[""7"",""11"",""16"",""8""]","B","D","modiste","","D","67","algLinUCB_0.9","diff-topics","high_school_mathematics","The following are multiple choice questions about high_school_mathematics.
Colton and his dad bought a gallon of paint that cost $13. They also bought 2 brushes that cost $9 each. What was the total cost, not including tax, of the brushes and the paint they bought?
(A) $22, (B) $24, (C) $31, (D) $35
Answer: C
Solve for y. y – 2 + 3y = 10
(A) 2, (B) 3, (C) 4, (D) 5
Answer: B
Solve 3 over 2 * w = 66.
(A) 33, (B) 44, (C) 88, (D) 99
Answer: B
Write 5.875 as a mixed number or fraction in simplest form.
(A) 5 and 8 over 9, (B) 5 and 7 over 8, (C) 7 over 8, (D) 5 and 87 over 105
Answer: B
Solve the equation 124 = m + 34.
(A) 158, (B) 90, (C) 88, (D) 4,216
Answer: B
Zelma buys p pounds of bananas for 40 cents per pound. She pays the clerk with a twenty-dollar bill. The clerk subtracts the total cost of the bananas from the twenty-dollar bill to determine the amount of change to give Zelma. Which expression represents the amount of change Zelma should receive?
(A) p - 20, (B) 20 - 40p, (C) 20 - 0.40p, (D) 0.40p - 20
Answer: C
Please answer the following question with just the correct option (A, B, C, or D) without any explanation or additional text.
How many ways are there to put 4 distinguishable balls into 2 indistinguishable boxes?
(A) '7', (B) '11', (C) '16', (D) '8'
Answer:","","","","","","","","","","","","","","","","","","","","","",""
"","","","","","","","","","","","","","","","","","","","","","","","","","","","C","","","","","","","","","","","","","","","","","","","","",""
"","","","","","","","","","","","","","","","","","","","","","","","","","","","","false","141","-1","B","false","false","defer","[]","false","0","false","0","{""elementary_mathematics"":[""40/50"",""31/50"",""7/8""],""high_school_mathematics"":[""27/50"",""24/52"",""3/6""],""college_mathematics"":[""22/50"",""26/51"",""2/6""]}","{""elementary_mathematics"":false,""college_mathematics"":false,""high_school_mathematics"":true}","You should attempt this problem by yourself","null","null","null","null","true",""
"image-keyboard-response","28","3395220","0.0-4.0-2.7","0l470lfexldeb9q","6771bbe322322bf003bae1f2","67b62c430b9240ccd8986e70","67b63156388532ea4853c0e9","1","null","","","null","","","How many ways are there to put 4 distinguishable balls into 2 indistinguishable boxes?","[""7"",""11"",""16"",""8""]","B","D","modiste","","D","67","algLinUCB_0.9","diff-topics","high_school_mathematics","The following are multiple choice questions about high_school_mathematics.
Colton and his dad bought a gallon of paint that cost $13. They also bought 2 brushes that cost $9 each. What was the total cost, not including tax, of the brushes and the paint they bought?
(A) $22, (B) $24, (C) $31, (D) $35
Answer: C
Solve for y. y – 2 + 3y = 10
(A) 2, (B) 3, (C) 4, (D) 5
Answer: B
Solve 3 over 2 * w = 66.
(A) 33, (B) 44, (C) 88, (D) 99
Answer: B
Write 5.875 as a mixed number or fraction in simplest form.
(A) 5 and 8 over 9, (B) 5 and 7 over 8, (C) 7 over 8, (D) 5 and 87 over 105
Answer: B
Solve the equation 124 = m + 34.
(A) 158, (B) 90, (C) 88, (D) 4,216
Answer: B
Zelma buys p pounds of bananas for 40 cents per pound. She pays the clerk with a twenty-dollar bill. The clerk subtracts the total cost of the bananas from the twenty-dollar bill to determine the amount of change to give Zelma. Which expression represents the amount of change Zelma should receive?
(A) p - 20, (B) 20 - 40p, (C) 20 - 0.40p, (D) 0.40p - 20
Answer: C
Please answer the following question with just the correct option (A, B, C, or D) without any explanation or additional text.
How many ways are there to put 4 distinguishable balls into 2 indistinguishable boxes?
(A) '7', (B) '11', (C) '16', (D) '8'
Answer:","","","","","","","","","","","","","","","","","","","","","","feedback_imgs/Incorrect.png"
"call-function","29","3395221","0.0-4.0-0.8","0l470lfexldeb9q","6771bbe322322bf003bae1f2","67b62c430b9240ccd8986e70","67b63156388532ea4853c0e9","1","","","","","","defer","What expression can be used to show 270,240 written in expanded form?","[""200,000 + 7,000 + 200 + 4"",""200,000 + 7,000 + 200 + 40"",""200,000 + 70,000 + 200 + 40"",""200,000 + 70,000 + 2,000 + 40""]","A","C","modiste","","C","93","algLinUCB_0.9","diff-topics","elementary_mathematics","The following are multiple choice questions about high_school_mathematics.
Colton and his dad bought a gallon of paint that cost $13. They also bought 2 brushes that cost $9 each. What was the total cost, not including tax, of the brushes and the paint they bought?
(A) $22, (B) $24, (C) $31, (D) $35
Answer: C
Solve for y. y – 2 + 3y = 10
(A) 2, (B) 3, (C) 4, (D) 5
Answer: B
Solve 3 over 2 * w = 66.
(A) 33, (B) 44, (C) 88, (D) 99
Answer: B
Write 5.875 as a mixed number or fraction in simplest form.
(A) 5 and 8 over 9, (B) 5 and 7 over 8, (C) 7 over 8, (D) 5 and 87 over 105
Answer: B
Solve the equation 124 = m + 34.
(A) 158, (B) 90, (C) 88, (D) 4,216
Answer: B
Zelma buys p pounds of bananas for 40 cents per pound. She pays the clerk with a twenty-dollar bill. The clerk subtracts the total cost of the bananas from the twenty-dollar bill to determine the amount of change to give Zelma. Which expression represents the amount of change Zelma should receive?
(A) p - 20, (B) 20 - 40p, (C) 20 - 0.40p, (D) 0.40p - 20
Answer: C
Please answer the following question with just the correct option (A, B, C, or D) without any explanation or additional text.
What expression can be used to show 270,240 written in expanded form?
(A) '200,000 + 7,000 + 200 + 4', (B) '200,000 + 7,000 + 200 + 40', (C) '200,000 + 70,000 + 200 + 40', (D) '200,000 + 70,000 + 2,000 + 40'
Answer:","","","","","","","","","","","","","","","","","","","","","",""
"survey-html-form","30","3414187","0.0-4.0-1.8","0l470lfexldeb9q","6771bbe322322bf003bae1f2","67b62c430b9240ccd8986e70","67b63156388532ea4853c0e9","1","18965.69999998808","","","{""mcAnswer"":""C""}","","","What expression can be used to show 270,240 written in expanded form?","[""200,000 + 7,000 + 200 + 4"",""200,000 + 7,000 + 200 + 40"",""200,000 + 70,000 + 200 + 40"",""200,000 + 70,000 + 2,000 + 40""]","A","C","modiste","","C","93","algLinUCB_0.9","diff-topics","elementary_mathematics","The following are multiple choice questions about high_school_mathematics.
Colton and his dad bought a gallon of paint that cost $13. They also bought 2 brushes that cost $9 each. What was the total cost, not including tax, of the brushes and the paint they bought?
(A) $22, (B) $24, (C) $31, (D) $35
Answer: C
Solve for y. y – 2 + 3y = 10
(A) 2, (B) 3, (C) 4, (D) 5
Answer: B
Solve 3 over 2 * w = 66.
(A) 33, (B) 44, (C) 88, (D) 99
Answer: B
Write 5.875 as a mixed number or fraction in simplest form.
(A) 5 and 8 over 9, (B) 5 and 7 over 8, (C) 7 over 8, (D) 5 and 87 over 105
Answer: B
Solve the equation 124 = m + 34.
(A) 158, (B) 90, (C) 88, (D) 4,216
Answer: B
Zelma buys p pounds of bananas for 40 cents per pound. She pays the clerk with a twenty-dollar bill. The clerk subtracts the total cost of the bananas from the twenty-dollar bill to determine the amount of change to give Zelma. Which expression represents the amount of change Zelma should receive?
(A) p - 20, (B) 20 - 40p, (C) 20 - 0.40p, (D) 0.40p - 20
Answer: C
Please answer the following question with just the correct option (A, B, C, or D) without any explanation or additional text.
What expression can be used to show 270,240 written in expanded form?
(A) '200,000 + 7,000 + 200 + 4', (B) '200,000 + 7,000 + 200 + 40', (C) '200,000 + 70,000 + 200 + 40', (D) '200,000 + 70,000 + 2,000 + 40'
Answer:","","","","","","","","","","","","","","","","","","","","","",""
"","","","","","","","","","","","","","","","","","","","","","","","","","","","C","","","","","","","","","","","","","","","","","","","","",""
"","","","","","","","","","","","","","","","","","","","","","","","","","","","","false","151","-1","A","true","false","defer","[]","false","0","false","0","{""elementary_mathematics"":[""40/50"",""31/50"",""8/9""],""high_school_mathematics"":[""27/50"",""24/52"",""3/6""],""college_mathematics"":[""22/50"",""26/51"",""2/6""]}","{""elementary_mathematics"":false,""college_mathematics"":false,""high_school_mathematics"":true}","You should attempt this problem by yourself","null","null","null","null","true",""
"image-keyboard-response","31","3415705","0.0-4.0-2.8","0l470lfexldeb9q","6771bbe322322bf003bae1f2","67b62c430b9240ccd8986e70","67b63156388532ea4853c0e9","1","null","","","null","","","What expression can be used to show 270,240 written in expanded form?","[""200,000 + 7,000 + 200 + 4"",""200,000 + 7,000 + 200 + 40"",""200,000 + 70,000 + 200 + 40"",""200,000 + 70,000 + 2,000 + 40""]","A","C","modiste","","C","93","algLinUCB_0.9","diff-topics","elementary_mathematics","The following are multiple choice questions about high_school_mathematics.
Colton and his dad bought a gallon of paint that cost $13. They also bought 2 brushes that cost $9 each. What was the total cost, not including tax, of the brushes and the paint they bought?
(A) $22, (B) $24, (C) $31, (D) $35
Answer: C
Solve for y. y – 2 + 3y = 10
(A) 2, (B) 3, (C) 4, (D) 5
Answer: B
Solve 3 over 2 * w = 66.
(A) 33, (B) 44, (C) 88, (D) 99
Answer: B
Write 5.875 as a mixed number or fraction in simplest form.
(A) 5 and 8 over 9, (B) 5 and 7 over 8, (C) 7 over 8, (D) 5 and 87 over 105
Answer: B
Solve the equation 124 = m + 34.
(A) 158, (B) 90, (C) 88, (D) 4,216
Answer: B
Zelma buys p pounds of bananas for 40 cents per pound. She pays the clerk with a twenty-dollar bill. The clerk subtracts the total cost of the bananas from the twenty-dollar bill to determine the amount of change to give Zelma. Which expression represents the amount of change Zelma should receive?
(A) p - 20, (B) 20 - 40p, (C) 20 - 0.40p, (D) 0.40p - 20
Answer: C
Please answer the following question with just the correct option (A, B, C, or D) without any explanation or additional text.
What expression can be used to show 270,240 written in expanded form?
(A) '200,000 + 7,000 + 200 + 4', (B) '200,000 + 7,000 + 200 + 40', (C) '200,000 + 70,000 + 200 + 40', (D) '200,000 + 70,000 + 2,000 + 40'
Answer:","","","","","","","","","","","","","","","","","","","","","","feedback_imgs/Correct.png"
"call-function","32","3415705","0.0-4.0-0.9","0l470lfexldeb9q","6771bbe322322bf003bae1f2","67b62c430b9240ccd8986e70","67b63156388532ea4853c0e9","1","","","","","","defer","How many positive integers are factors of 120 and also factors of 40?","[""4"",""8"",""2"",""1""]","C","A","modiste","","B","68","algLinUCB_0.9","diff-topics","high_school_mathematics","The following are multiple choice questions about high_school_mathematics.
Colton and his dad bought a gallon of paint that cost $13. They also bought 2 brushes that cost $9 each. What was the total cost, not including tax, of the brushes and the paint they bought?
(A) $22, (B) $24, (C) $31, (D) $35
Answer: C
Solve for y. y – 2 + 3y = 10
(A) 2, (B) 3, (C) 4, (D) 5
Answer: B
Solve 3 over 2 * w = 66.
(A) 33, (B) 44, (C) 88, (D) 99
Answer: B
Write 5.875 as a mixed number or fraction in simplest form.
(A) 5 and 8 over 9, (B) 5 and 7 over 8, (C) 7 over 8, (D) 5 and 87 over 105
Answer: B
Solve the equation 124 = m + 34.
(A) 158, (B) 90, (C) 88, (D) 4,216
Answer: B
Zelma buys p pounds of bananas for 40 cents per pound. She pays the clerk with a twenty-dollar bill. The clerk subtracts the total cost of the bananas from the twenty-dollar bill to determine the amount of change to give Zelma. Which expression represents the amount of change Zelma should receive?
(A) p - 20, (B) 20 - 40p, (C) 20 - 0.40p, (D) 0.40p - 20
Answer: C
Please answer the following question with just the correct option (A, B, C, or D) without any explanation or additional text.
How many positive integers are factors of 120 and also factors of 40?
(A) '4', (B) '8', (C) '2', (D) '1'
Answer:","","","","","","","","","","true","2","","","","","","","","","","",""
"survey-html-form","33","3497452","0.0-4.0-1.9","0l470lfexldeb9q","6771bbe322322bf003bae1f2","67b62c430b9240ccd8986e70","67b63156388532ea4853c0e9","1","81745.60000002384","","","{""mcAnswer"":""A""}","","","How many positive integers are factors of 120 and also factors of 40?","[""4"",""8"",""2"",""1""]","C","A","modiste","","B","68","algLinUCB_0.9","diff-topics","high_school_mathematics","The following are multiple choice questions about high_school_mathematics.
Colton and his dad bought a gallon of paint that cost $13. They also bought 2 brushes that cost $9 each. What was the total cost, not including tax, of the brushes and the paint they bought?
(A) $22, (B) $24, (C) $31, (D) $35
Answer: C
Solve for y. y – 2 + 3y = 10
(A) 2, (B) 3, (C) 4, (D) 5
Answer: B
Solve 3 over 2 * w = 66.
(A) 33, (B) 44, (C) 88, (D) 99
Answer: B
Write 5.875 as a mixed number or fraction in simplest form.
(A) 5 and 8 over 9, (B) 5 and 7 over 8, (C) 7 over 8, (D) 5 and 87 over 105
Answer: B
Solve the equation 124 = m + 34.
(A) 158, (B) 90, (C) 88, (D) 4,216
Answer: B
Zelma buys p pounds of bananas for 40 cents per pound. She pays the clerk with a twenty-dollar bill. The clerk subtracts the total cost of the bananas from the twenty-dollar bill to determine the amount of change to give Zelma. Which expression represents the amount of change Zelma should receive?
(A) p - 20, (B) 20 - 40p, (C) 20 - 0.40p, (D) 0.40p - 20
Answer: C
Please answer the following question with just the correct option (A, B, C, or D) without any explanation or additional text.
How many positive integers are factors of 120 and also factors of 40?
(A) '4', (B) '8', (C) '2', (D) '1'
Answer:","","","","","","","","","","","","","","","","","","","","","",""
"","","","","","","","","","","","","","","","","","","","","","","","","","","","A","","","","","","","","","","","","","","","","","","","","",""
"","","","","","","","","","","","","","","","","","","","","","","","","","","","","false","144","-1","C","false","false","defer","[]","true","2","false","0","{""elementary_mathematics"":[""40/50"",""31/50"",""8/9""],""high_school_mathematics"":[""27/51"",""24/52"",""3/6""],""college_mathematics"":[""22/50"",""26/51"",""2/6""]}","{""elementary_mathematics"":false,""college_mathematics"":false,""high_school_mathematics"":false}","You were wrong by yourself on high_school_mathematics last time. You should outsource this problem to a human agent","null","false","null","true","null",""
"image-keyboard-response","34","3498955","0.0-4.0-2.9","0l470lfexldeb9q","6771bbe322322bf003bae1f2","67b62c430b9240ccd8986e70","67b63156388532ea4853c0e9","1","null","","","null","","","How many positive integers are factors of 120 and also factors of 40?","[""4"",""8"",""2"",""1""]","C","A","modiste","","B","68","algLinUCB_0.9","diff-topics","high_school_mathematics","The following are multiple choice questions about high_school_mathematics.
Colton and his dad bought a gallon of paint that cost $13. They also bought 2 brushes that cost $9 each. What was the total cost, not including tax, of the brushes and the paint they bought?
(A) $22, (B) $24, (C) $31, (D) $35
Answer: C
Solve for y. y – 2 + 3y = 10
(A) 2, (B) 3, (C) 4, (D) 5
Answer: B
Solve 3 over 2 * w = 66.
(A) 33, (B) 44, (C) 88, (D) 99
Answer: B
Write 5.875 as a mixed number or fraction in simplest form.
(A) 5 and 8 over 9, (B) 5 and 7 over 8, (C) 7 over 8, (D) 5 and 87 over 105
Answer: B
Solve the equation 124 = m + 34.
(A) 158, (B) 90, (C) 88, (D) 4,216
Answer: B
Zelma buys p pounds of bananas for 40 cents per pound. She pays the clerk with a twenty-dollar bill. The clerk subtracts the total cost of the bananas from the twenty-dollar bill to determine the amount of change to give Zelma. Which expression represents the amount of change Zelma should receive?
(A) p - 20, (B) 20 - 40p, (C) 20 - 0.40p, (D) 0.40p - 20
Answer: C
Please answer the following question with just the correct option (A, B, C, or D) without any explanation or additional text.
How many positive integers are factors of 120 and also factors of 40?
(A) '4', (B) '8', (C) '2', (D) '1'
Answer:","","","","","","","","","","","","","","","","","","","","","","feedback_imgs/Incorrect.png"
"call-function","35","3498955","0.0-4.0-0.10","0l470lfexldeb9q","6771bbe322322bf003bae1f2","67b62c430b9240ccd8986e70","67b63156388532ea4853c0e9","1","","","","","","defer","If v is an eigenvector of an invertible matrix A, then which of the following is I are necessarily
true?
I. v is also an eigenvector of 2A.
II. v is also an eigenvector of A^2.
III. v is also an eigenvector of A^(-1).","[""I only"",""II only"",""III only"",""I, II, and III""]","D","B","modiste","","D","100","algLinUCB_0.9","diff-topics","college_mathematics","The following are multiple choice questions about high_school_mathematics.
Colton and his dad bought a gallon of paint that cost $13. They also bought 2 brushes that cost $9 each. What was the total cost, not including tax, of the brushes and the paint they bought?
(A) $22, (B) $24, (C) $31, (D) $35
Answer: C
Solve for y. y – 2 + 3y = 10
(A) 2, (B) 3, (C) 4, (D) 5
Answer: B
Solve 3 over 2 * w = 66.
(A) 33, (B) 44, (C) 88, (D) 99
Answer: B
Write 5.875 as a mixed number or fraction in simplest form.
(A) 5 and 8 over 9, (B) 5 and 7 over 8, (C) 7 over 8, (D) 5 and 87 over 105
Answer: B
Solve the equation 124 = m + 34.
(A) 158, (B) 90, (C) 88, (D) 4,216
Answer: B
Zelma buys p pounds of bananas for 40 cents per pound. She pays the clerk with a twenty-dollar bill. The clerk subtracts the total cost of the bananas from the twenty-dollar bill to determine the amount of change to give Zelma. Which expression represents the amount of change Zelma should receive?
(A) p - 20, (B) 20 - 40p, (C) 20 - 0.40p, (D) 0.40p - 20
Answer: C
Please answer the following question with just the correct option (A, B, C, or D) without any explanation or additional text.
If v is an eigenvector of an invertible matrix A, then which of the following is I are necessarily
true?
I. v is also an eigenvector of 2A.
II. v is also an eigenvector of A^2.
III. v is also an eigenvector of A^(-1).
(A) 'I only', (B) 'II only', (C) 'III only', (D) 'I, II, and III'
Answer:","","","","","","","","","","","","true","2","","","","","","","","",""
"survey-html-form","36","3512908","0.0-4.0-1.10","0l470lfexldeb9q","6771bbe322322bf003bae1f2","67b62c430b9240ccd8986e70","67b63156388532ea4853c0e9","1","13951.200000017881","","","{""mcAnswer"":""D""}","","","If v is an eigenvector of an invertible matrix A, then which of the following is I are necessarily
true?
I. v is also an eigenvector of 2A.
II. v is also an eigenvector of A^2.
III. v is also an eigenvector of A^(-1).","[""I only"",""II only"",""III only"",""I, II, and III""]","D","B","modiste","","D","100","algLinUCB_0.9","diff-topics","college_mathematics","The following are multiple choice questions about high_school_mathematics.
Colton and his dad bought a gallon of paint that cost $13. They also bought 2 brushes that cost $9 each. What was the total cost, not including tax, of the brushes and the paint they bought?
(A) $22, (B) $24, (C) $31, (D) $35
Answer: C
Solve for y. y – 2 + 3y = 10
(A) 2, (B) 3, (C) 4, (D) 5
Answer: B
Solve 3 over 2 * w = 66.
(A) 33, (B) 44, (C) 88, (D) 99
Answer: B
Write 5.875 as a mixed number or fraction in simplest form.
(A) 5 and 8 over 9, (B) 5 and 7 over 8, (C) 7 over 8, (D) 5 and 87 over 105
Answer: B
Solve the equation 124 = m + 34.
(A) 158, (B) 90, (C) 88, (D) 4,216
Answer: B
Zelma buys p pounds of bananas for 40 cents per pound. She pays the clerk with a twenty-dollar bill. The clerk subtracts the total cost of the bananas from the twenty-dollar bill to determine the amount of change to give Zelma. Which expression represents the amount of change Zelma should receive?
(A) p - 20, (B) 20 - 40p, (C) 20 - 0.40p, (D) 0.40p - 20
Answer: C
Please answer the following question with just the correct option (A, B, C, or D) without any explanation or additional text.
If v is an eigenvector of an invertible matrix A, then which of the following is I are necessarily
true?
I. v is also an eigenvector of 2A.
II. v is also an eigenvector of A^2.
III. v is also an eigenvector of A^(-1).
(A) 'I only', (B) 'II only', (C) 'III only', (D) 'I, II, and III'
Answer:","","","","","","","","","","","","","","","","","","","","","",""
"","","","","","","","","","","","","","","","","","","","","","","","","","","","D","","","","","","","","","","","","","","","","","","","","",""
"","","","","","","","","","","","","","","","","","","","","","","","","","","","","false","151","-1","D","true","true","defer","[]","false","0","true","2","{""elementary_mathematics"":[""40/50"",""31/50"",""8/9""],""high_school_mathematics"":[""27/51"",""24/52"",""3/6""],""college_mathematics"":[""22/50"",""27/52"",""2/6""]}","{""elementary_mathematics"":false,""college_mathematics"":false,""high_school_mathematics"":false}","You should outsource this problem to the AI agent","false","null","true","null","null",""
"image-keyboard-response","37","3514411","0.0-4.0-2.10","0l470lfexldeb9q","6771bbe322322bf003bae1f2","67b62c430b9240ccd8986e70","67b63156388532ea4853c0e9","1","null","","","null","","","If v is an eigenvector of an invertible matrix A, then which of the following is I are necessarily
true?
I. v is also an eigenvector of 2A.
II. v is also an eigenvector of A^2.
III. v is also an eigenvector of A^(-1).","[""I only"",""II only"",""III only"",""I, II, and III""]","D","B","modiste","","D","100","algLinUCB_0.9","diff-topics","college_mathematics","The following are multiple choice questions about high_school_mathematics.
Colton and his dad bought a gallon of paint that cost $13. They also bought 2 brushes that cost $9 each. What was the total cost, not including tax, of the brushes and the paint they bought?
(A) $22, (B) $24, (C) $31, (D) $35
Answer: C
Solve for y. y – 2 + 3y = 10
(A) 2, (B) 3, (C) 4, (D) 5
Answer: B
Solve 3 over 2 * w = 66.
(A) 33, (B) 44, (C) 88, (D) 99
Answer: B
Write 5.875 as a mixed number or fraction in simplest form.
(A) 5 and 8 over 9, (B) 5 and 7 over 8, (C) 7 over 8, (D) 5 and 87 over 105
Answer: B
Solve the equation 124 = m + 34.
(A) 158, (B) 90, (C) 88, (D) 4,216
Answer: B
Zelma buys p pounds of bananas for 40 cents per pound. She pays the clerk with a twenty-dollar bill. The clerk subtracts the total cost of the bananas from the twenty-dollar bill to determine the amount of change to give Zelma. Which expression represents the amount of change Zelma should receive?
(A) p - 20, (B) 20 - 40p, (C) 20 - 0.40p, (D) 0.40p - 20
Answer: C
Please answer the following question with just the correct option (A, B, C, or D) without any explanation or additional text.
If v is an eigenvector of an invertible matrix A, then which of the following is I are necessarily
true?
I. v is also an eigenvector of 2A.
II. v is also an eigenvector of A^2.
III. v is also an eigenvector of A^(-1).
(A) 'I only', (B) 'II only', (C) 'III only', (D) 'I, II, and III'
Answer:","","","","","","","","","","","","","","","","","","","","","","feedback_imgs/Correct.png"
"call-function","38","3514411","0.0-4.0-0.11","0l470lfexldeb9q","6771bbe322322bf003bae1f2","67b62c430b9240ccd8986e70","67b63156388532ea4853c0e9","1","","","","","","defer","The polynomial which results from the expansion of (x^2+5x+6)^2+(px+q)(x^3+7x^2+3x) has degree 2. Find p+q.","[""-2"",""-4"",""-1"",""1""]","B","B","modiste","","B","62","algLinUCB_0.9","diff-topics","high_school_mathematics","The following are multiple choice questions about high_school_mathematics.
Colton and his dad bought a gallon of paint that cost $13. They also bought 2 brushes that cost $9 each. What was the total cost, not including tax, of the brushes and the paint they bought?
(A) $22, (B) $24, (C) $31, (D) $35
Answer: C
Solve for y. y – 2 + 3y = 10
(A) 2, (B) 3, (C) 4, (D) 5
Answer: B
Solve 3 over 2 * w = 66.
(A) 33, (B) 44, (C) 88, (D) 99
Answer: B
Write 5.875 as a mixed number or fraction in simplest form.
(A) 5 and 8 over 9, (B) 5 and 7 over 8, (C) 7 over 8, (D) 5 and 87 over 105
Answer: B
Solve the equation 124 = m + 34.
(A) 158, (B) 90, (C) 88, (D) 4,216
Answer: B
Zelma buys p pounds of bananas for 40 cents per pound. She pays the clerk with a twenty-dollar bill. The clerk subtracts the total cost of the bananas from the twenty-dollar bill to determine the amount of change to give Zelma. Which expression represents the amount of change Zelma should receive?
(A) p - 20, (B) 20 - 40p, (C) 20 - 0.40p, (D) 0.40p - 20
Answer: C
Please answer the following question with just the correct option (A, B, C, or D) without any explanation or additional text.
The polynomial which results from the expansion of (x^2+5x+6)^2+(px+q)(x^3+7x^2+3x) has degree 2. Find p+q.
(A) '-2', (B) '-4', (C) '-1', (D) '1'
Answer:","","","","","","","","","","","","true","2","","","","","","","","",""
"survey-html-form","39","3526996","0.0-4.0-1.11","0l470lfexldeb9q","6771bbe322322bf003bae1f2","67b62c430b9240ccd8986e70","67b63156388532ea4853c0e9","1","12583.5","","","{""mcAnswer"":""B""}","","","The polynomial which results from the expansion of (x^2+5x+6)^2+(px+q)(x^3+7x^2+3x) has degree 2. Find p+q.","[""-2"",""-4"",""-1"",""1""]","B","B","modiste","","B","62","algLinUCB_0.9","diff-topics","high_school_mathematics","The following are multiple choice questions about high_school_mathematics.
Colton and his dad bought a gallon of paint that cost $13. They also bought 2 brushes that cost $9 each. What was the total cost, not including tax, of the brushes and the paint they bought?
(A) $22, (B) $24, (C) $31, (D) $35
Answer: C
Solve for y. y – 2 + 3y = 10
(A) 2, (B) 3, (C) 4, (D) 5
Answer: B
Solve 3 over 2 * w = 66.
(A) 33, (B) 44, (C) 88, (D) 99
Answer: B
Write 5.875 as a mixed number or fraction in simplest form.
(A) 5 and 8 over 9, (B) 5 and 7 over 8, (C) 7 over 8, (D) 5 and 87 over 105
Answer: B
Solve the equation 124 = m + 34.
(A) 158, (B) 90, (C) 88, (D) 4,216
Answer: B
Zelma buys p pounds of bananas for 40 cents per pound. She pays the clerk with a twenty-dollar bill. The clerk subtracts the total cost of the bananas from the twenty-dollar bill to determine the amount of change to give Zelma. Which expression represents the amount of change Zelma should receive?
(A) p - 20, (B) 20 - 40p, (C) 20 - 0.40p, (D) 0.40p - 20
Answer: C
Please answer the following question with just the correct option (A, B, C, or D) without any explanation or additional text.
The polynomial which results from the expansion of (x^2+5x+6)^2+(px+q)(x^3+7x^2+3x) has degree 2. Find p+q.
(A) '-2', (B) '-4', (C) '-1', (D) '1'
Answer:","","","","","","","","","","","","","","","","","","","","","",""
"","","","","","","","","","","","","","","","","","","","","","","","","","","","B","","","","","","","","","","","","","","","","","","","","",""
"","","","","","","","","","","","","","","","","","","","","","","","","","","","","false","158","-1","B","true","true","defer","[]","false","0","true","2","{""elementary_mathematics"":[""40/50"",""31/50"",""8/9""],""high_school_mathematics"":[""27/51"",""25/53"",""3/6""],""college_mathematics"":[""22/50"",""27/52"",""2/6""]}","{""elementary_mathematics"":false,""college_mathematics"":false,""high_school_mathematics"":false}","You should outsource this problem to a human agent","false","null","null","false","null",""
"image-keyboard-response","40","3528502","0.0-4.0-2.11","0l470lfexldeb9q","6771bbe322322bf003bae1f2","67b62c430b9240ccd8986e70","67b63156388532ea4853c0e9","1","null","","","null","","","The polynomial which results from the expansion of (x^2+5x+6)^2+(px+q)(x^3+7x^2+3x) has degree 2. Find p+q.","[""-2"",""-4"",""-1"",""1""]","B","B","modiste","","B","62","algLinUCB_0.9","diff-topics","high_school_mathematics","The following are multiple choice questions about high_school_mathematics.
Colton and his dad bought a gallon of paint that cost $13. They also bought 2 brushes that cost $9 each. What was the total cost, not including tax, of the brushes and the paint they bought?
(A) $22, (B) $24, (C) $31, (D) $35
Answer: C
Solve for y. y – 2 + 3y = 10
(A) 2, (B) 3, (C) 4, (D) 5
Answer: B
Solve 3 over 2 * w = 66.
(A) 33, (B) 44, (C) 88, (D) 99
Answer: B
Write 5.875 as a mixed number or fraction in simplest form.
(A) 5 and 8 over 9, (B) 5 and 7 over 8, (C) 7 over 8, (D) 5 and 87 over 105
Answer: B
Solve the equation 124 = m + 34.
(A) 158, (B) 90, (C) 88, (D) 4,216
Answer: B
Zelma buys p pounds of bananas for 40 cents per pound. She pays the clerk with a twenty-dollar bill. The clerk subtracts the total cost of the bananas from the twenty-dollar bill to determine the amount of change to give Zelma. Which expression represents the amount of change Zelma should receive?
(A) p - 20, (B) 20 - 40p, (C) 20 - 0.40p, (D) 0.40p - 20
Answer: C
Please answer the following question with just the correct option (A, B, C, or D) without any explanation or additional text.
The polynomial which results from the expansion of (x^2+5x+6)^2+(px+q)(x^3+7x^2+3x) has degree 2. Find p+q.
(A) '-2', (B) '-4', (C) '-1', (D) '1'
Answer:","","","","","","","","","","","","","","","","","","","","","","feedback_imgs/Correct.png"
"call-function","41","3528502","0.0-4.0-0.12","0l470lfexldeb9q","6771bbe322322bf003bae1f2","67b62c430b9240ccd8986e70","67b63156388532ea4853c0e9","1","","","","","","defer","S(n) is a statement about positive integers n such that whenever S(k) is true, S(k + 1) must also be true. Furthermore, there exists some positive integer n0 such that S(n0) is not true. Of the following, which is the strongest conclusion that can be drawn?","[""S(n0 + 1) is not true."",""S(n0 - 1) is not true."",""S(n) is not true for any n <= n0"",""S(n) is not true for any n >= n0""]","D","B","modiste","","C","110","algLinUCB_0.9","diff-topics","college_mathematics","The following are multiple choice questions about high_school_mathematics.
Colton and his dad bought a gallon of paint that cost $13. They also bought 2 brushes that cost $9 each. What was the total cost, not including tax, of the brushes and the paint they bought?
(A) $22, (B) $24, (C) $31, (D) $35
Answer: C
Solve for y. y – 2 + 3y = 10
(A) 2, (B) 3, (C) 4, (D) 5
Answer: B
Solve 3 over 2 * w = 66.
(A) 33, (B) 44, (C) 88, (D) 99
Answer: B
Write 5.875 as a mixed number or fraction in simplest form.
(A) 5 and 8 over 9, (B) 5 and 7 over 8, (C) 7 over 8, (D) 5 and 87 over 105
Answer: B
Solve the equation 124 = m + 34.
(A) 158, (B) 90, (C) 88, (D) 4,216
Answer: B
Zelma buys p pounds of bananas for 40 cents per pound. She pays the clerk with a twenty-dollar bill. The clerk subtracts the total cost of the bananas from the twenty-dollar bill to determine the amount of change to give Zelma. Which expression represents the amount of change Zelma should receive?
(A) p - 20, (B) 20 - 40p, (C) 20 - 0.40p, (D) 0.40p - 20
Answer: C
Please answer the following question with just the correct option (A, B, C, or D) without any explanation or additional text.
S(n) is a statement about positive integers n such that whenever S(k) is true, S(k + 1) must also be true. Furthermore, there exists some positive integer n0 such that S(n0) is not true. Of the following, which is the strongest conclusion that can be drawn?
(A) 'S(n0 + 1) is not true.', (B) 'S(n0 - 1) is not true.', (C) 'S(n) is not true for any n <= n0', (D) 'S(n) is not true for any n >= n0'
Answer:","","","","","","","","","","","","true","2","","","","","","","","",""
"survey-html-form","42","3542852","0.0-4.0-1.12","0l470lfexldeb9q","6771bbe322322bf003bae1f2","67b62c430b9240ccd8986e70","67b63156388532ea4853c0e9","1","14348.90000000596","","","{""mcAnswer"":""D""}","","","S(n) is a statement about positive integers n such that whenever S(k) is true, S(k + 1) must also be true. Furthermore, there exists some positive integer n0 such that S(n0) is not true. Of the following, which is the strongest conclusion that can be drawn?","[""S(n0 + 1) is not true."",""S(n0 - 1) is not true."",""S(n) is not true for any n <= n0"",""S(n) is not true for any n >= n0""]","D","B","modiste","","C","110","algLinUCB_0.9","diff-topics","college_mathematics","The following are multiple choice questions about high_school_mathematics.
Colton and his dad bought a gallon of paint that cost $13. They also bought 2 brushes that cost $9 each. What was the total cost, not including tax, of the brushes and the paint they bought?
(A) $22, (B) $24, (C) $31, (D) $35
Answer: C
Solve for y. y – 2 + 3y = 10
(A) 2, (B) 3, (C) 4, (D) 5
Answer: B
Solve 3 over 2 * w = 66.
(A) 33, (B) 44, (C) 88, (D) 99
Answer: B
Write 5.875 as a mixed number or fraction in simplest form.
(A) 5 and 8 over 9, (B) 5 and 7 over 8, (C) 7 over 8, (D) 5 and 87 over 105
Answer: B
Solve the equation 124 = m + 34.
(A) 158, (B) 90, (C) 88, (D) 4,216
Answer: B
Zelma buys p pounds of bananas for 40 cents per pound. She pays the clerk with a twenty-dollar bill. The clerk subtracts the total cost of the bananas from the twenty-dollar bill to determine the amount of change to give Zelma. Which expression represents the amount of change Zelma should receive?
(A) p - 20, (B) 20 - 40p, (C) 20 - 0.40p, (D) 0.40p - 20
Answer: C
Please answer the following question with just the correct option (A, B, C, or D) without any explanation or additional text.
S(n) is a statement about positive integers n such that whenever S(k) is true, S(k + 1) must also be true. Furthermore, there exists some positive integer n0 such that S(n0) is not true. Of the following, which is the strongest conclusion that can be drawn?
(A) 'S(n0 + 1) is not true.', (B) 'S(n0 - 1) is not true.', (C) 'S(n) is not true for any n <= n0', (D) 'S(n) is not true for any n >= n0'
Answer:","","","","","","","","","","","","","","","","","","","","","",""
"","","","","","","","","","","","","","","","","","","","","","","","","","","","D","","","","","","","","","","","","","","","","","","","","",""
"","","","","","","","","","","","","","","","","","","","","","","","","","","","","false","155","-1","D","false","false","defer","[]","false","0","true","2","{""elementary_mathematics"":[""40/50"",""31/50"",""8/9""],""high_school_mathematics"":[""27/51"",""25/53"",""3/6""],""college_mathematics"":[""22/50"",""27/53"",""2/6""]}","{""elementary_mathematics"":false,""college_mathematics"":false,""high_school_mathematics"":false}","You should outsource this problem to the AI agent","false","null","true","null","null",""
"image-keyboard-response","43","3544362","0.0-4.0-2.12","0l470lfexldeb9q","6771bbe322322bf003bae1f2","67b62c430b9240ccd8986e70","67b63156388532ea4853c0e9","1","null","","","null","","","S(n) is a statement about positive integers n such that whenever S(k) is true, S(k + 1) must also be true. Furthermore, there exists some positive integer n0 such that S(n0) is not true. Of the following, which is the strongest conclusion that can be drawn?","[""S(n0 + 1) is not true."",""S(n0 - 1) is not true."",""S(n) is not true for any n <= n0"",""S(n) is not true for any n >= n0""]","D","B","modiste","","C","110","algLinUCB_0.9","diff-topics","college_mathematics","The following are multiple choice questions about high_school_mathematics.
Colton and his dad bought a gallon of paint that cost $13. They also bought 2 brushes that cost $9 each. What was the total cost, not including tax, of the brushes and the paint they bought?
(A) $22, (B) $24, (C) $31, (D) $35
Answer: C
Solve for y. y – 2 + 3y = 10
(A) 2, (B) 3, (C) 4, (D) 5
Answer: B
Solve 3 over 2 * w = 66.
(A) 33, (B) 44, (C) 88, (D) 99
Answer: B
Write 5.875 as a mixed number or fraction in simplest form.
(A) 5 and 8 over 9, (B) 5 and 7 over 8, (C) 7 over 8, (D) 5 and 87 over 105
Answer: B
Solve the equation 124 = m + 34.
(A) 158, (B) 90, (C) 88, (D) 4,216
Answer: B
Zelma buys p pounds of bananas for 40 cents per pound. She pays the clerk with a twenty-dollar bill. The clerk subtracts the total cost of the bananas from the twenty-dollar bill to determine the amount of change to give Zelma. Which expression represents the amount of change Zelma should receive?
(A) p - 20, (B) 20 - 40p, (C) 20 - 0.40p, (D) 0.40p - 20
Answer: C
Please answer the following question with just the correct option (A, B, C, or D) without any explanation or additional text.
S(n) is a statement about positive integers n such that whenever S(k) is true, S(k + 1) must also be true. Furthermore, there exists some positive integer n0 such that S(n0) is not true. Of the following, which is the strongest conclusion that can be drawn?
(A) 'S(n0 + 1) is not true.', (B) 'S(n0 - 1) is not true.', (C) 'S(n) is not true for any n <= n0', (D) 'S(n) is not true for any n >= n0'
Answer:","","","","","","","","","","","","","","","","","","","","","","feedback_imgs/Incorrect.png"
"call-function","44","3544362","0.0-4.0-0.13","0l470lfexldeb9q","6771bbe322322bf003bae1f2","67b62c430b9240ccd8986e70","67b63156388532ea4853c0e9","1","","","","","","defer","Rosa has a goal of running a total of 100 miles this month. Each day that she ran, she ran 5 miles. Which expression could Rosa use to determine how many miles she has left to run after running for d days?","[""100 — 5d"",""5d+ 100"",""100 / 5d"",""5d""]","A","A","modiste","","A","88","algLinUCB_0.9","diff-topics","elementary_mathematics","The following are multiple choice questions about high_school_mathematics.
Colton and his dad bought a gallon of paint that cost $13. They also bought 2 brushes that cost $9 each. What was the total cost, not including tax, of the brushes and the paint they bought?
(A) $22, (B) $24, (C) $31, (D) $35
Answer: C
Solve for y. y – 2 + 3y = 10
(A) 2, (B) 3, (C) 4, (D) 5
Answer: B
Solve 3 over 2 * w = 66.
(A) 33, (B) 44, (C) 88, (D) 99
Answer: B
Write 5.875 as a mixed number or fraction in simplest form.
(A) 5 and 8 over 9, (B) 5 and 7 over 8, (C) 7 over 8, (D) 5 and 87 over 105
Answer: B
Solve the equation 124 = m + 34.
(A) 158, (B) 90, (C) 88, (D) 4,216
Answer: B
Zelma buys p pounds of bananas for 40 cents per pound. She pays the clerk with a twenty-dollar bill. The clerk subtracts the total cost of the bananas from the twenty-dollar bill to determine the amount of change to give Zelma. Which expression represents the amount of change Zelma should receive?
(A) p - 20, (B) 20 - 40p, (C) 20 - 0.40p, (D) 0.40p - 20
Answer: C
Please answer the following question with just the correct option (A, B, C, or D) without any explanation or additional text.
Rosa has a goal of running a total of 100 miles this month. Each day that she ran, she ran 5 miles. Which expression could Rosa use to determine how many miles she has left to run after running for d days?
(A) '100 — 5d', (B) '5d+ 100', (C) '100 / 5d', (D) '5d'
Answer:","","","","","","","","","","","","","","","","","","","","","",""
"survey-html-form","45","3568743","0.0-4.0-1.13","0l470lfexldeb9q","6771bbe322322bf003bae1f2","67b62c430b9240ccd8986e70","67b63156388532ea4853c0e9","1","24379.40000000596","","","{""mcAnswer"":""A""}","","","Rosa has a goal of running a total of 100 miles this month. Each day that she ran, she ran 5 miles. Which expression could Rosa use to determine how many miles she has left to run after running for d days?","[""100 — 5d"",""5d+ 100"",""100 / 5d"",""5d""]","A","A","modiste","","A","88","algLinUCB_0.9","diff-topics","elementary_mathematics","The following are multiple choice questions about high_school_mathematics.
Colton and his dad bought a gallon of paint that cost $13. They also bought 2 brushes that cost $9 each. What was the total cost, not including tax, of the brushes and the paint they bought?
(A) $22, (B) $24, (C) $31, (D) $35
Answer: C
Solve for y. y – 2 + 3y = 10
(A) 2, (B) 3, (C) 4, (D) 5
Answer: B
Solve 3 over 2 * w = 66.
(A) 33, (B) 44, (C) 88, (D) 99
Answer: B
Write 5.875 as a mixed number or fraction in simplest form.
(A) 5 and 8 over 9, (B) 5 and 7 over 8, (C) 7 over 8, (D) 5 and 87 over 105
Answer: B
Solve the equation 124 = m + 34.
(A) 158, (B) 90, (C) 88, (D) 4,216
Answer: B
Zelma buys p pounds of bananas for 40 cents per pound. She pays the clerk with a twenty-dollar bill. The clerk subtracts the total cost of the bananas from the twenty-dollar bill to determine the amount of change to give Zelma. Which expression represents the amount of change Zelma should receive?
(A) p - 20, (B) 20 - 40p, (C) 20 - 0.40p, (D) 0.40p - 20
Answer: C
Please answer the following question with just the correct option (A, B, C, or D) without any explanation or additional text.
Rosa has a goal of running a total of 100 miles this month. Each day that she ran, she ran 5 miles. Which expression could Rosa use to determine how many miles she has left to run after running for d days?
(A) '100 — 5d', (B) '5d+ 100', (C) '100 / 5d', (D) '5d'
Answer:","","","","","","","","","","","","","","","","","","","","","",""
"","","","","","","","","","","","","","","","","","","","","","","","","","","","A","","","","","","","","","","","","","","","","","","","","",""
"","","","","","","","","","","","","","","","","","","","","","","","","","","","","false","165","-1","A","true","true","defer","[]","false","0","false","0","{""elementary_mathematics"":[""40/50"",""31/50"",""9/10""],""high_school_mathematics"":[""27/51"",""25/53"",""3/6""],""college_mathematics"":[""22/50"",""27/53"",""2/6""]}","{""elementary_mathematics"":false,""college_mathematics"":false,""high_school_mathematics"":false}","You should attempt this problem by yourself","null","null","null","null","true",""
"image-keyboard-response","46","3570249","0.0-4.0-2.13","0l470lfexldeb9q","6771bbe322322bf003bae1f2","67b62c430b9240ccd8986e70","67b63156388532ea4853c0e9","1","null","","","null","","","Rosa has a goal of running a total of 100 miles this month. Each day that she ran, she ran 5 miles. Which expression could Rosa use to determine how many miles she has left to run after running for d days?","[""100 — 5d"",""5d+ 100"",""100 / 5d"",""5d""]","A","A","modiste","","A","88","algLinUCB_0.9","diff-topics","elementary_mathematics","The following are multiple choice questions about high_school_mathematics.
Colton and his dad bought a gallon of paint that cost $13. They also bought 2 brushes that cost $9 each. What was the total cost, not including tax, of the brushes and the paint they bought?
(A) $22, (B) $24, (C) $31, (D) $35
Answer: C
Solve for y. y – 2 + 3y = 10
(A) 2, (B) 3, (C) 4, (D) 5
Answer: B
Solve 3 over 2 * w = 66.
(A) 33, (B) 44, (C) 88, (D) 99
Answer: B
Write 5.875 as a mixed number or fraction in simplest form.
(A) 5 and 8 over 9, (B) 5 and 7 over 8, (C) 7 over 8, (D) 5 and 87 over 105
Answer: B
Solve the equation 124 = m + 34.
(A) 158, (B) 90, (C) 88, (D) 4,216
Answer: B
Zelma buys p pounds of bananas for 40 cents per pound. She pays the clerk with a twenty-dollar bill. The clerk subtracts the total cost of the bananas from the twenty-dollar bill to determine the amount of change to give Zelma. Which expression represents the amount of change Zelma should receive?
(A) p - 20, (B) 20 - 40p, (C) 20 - 0.40p, (D) 0.40p - 20
Answer: C
Please answer the following question with just the correct option (A, B, C, or D) without any explanation or additional text.
Rosa has a goal of running a total of 100 miles this month. Each day that she ran, she ran 5 miles. Which expression could Rosa use to determine how many miles she has left to run after running for d days?
(A) '100 — 5d', (B) '5d+ 100', (C) '100 / 5d', (D) '5d'
Answer:","","","","","","","","","","","","","","","","","","","","","","feedback_imgs/Correct.png"
"call-function","47","3570250","0.0-4.0-0.14","0l470lfexldeb9q","6771bbe322322bf003bae1f2","67b62c430b9240ccd8986e70","67b63156388532ea4853c0e9","1","","","","","","defer","In xyz-space, what are the coordinates of the point on the plane 2x + y + 3z = 3 that is closest to the origin?","[""(0, 0, 1)"",""(3/7, 3/14, 9/14)"",""(7/15, 8/15, 1/15)"",""(5/6, 1/3, 1/3)""]","B","D","modiste","","B","111","algLinUCB_0.9","diff-topics","college_mathematics","The following are multiple choice questions about high_school_mathematics.
Colton and his dad bought a gallon of paint that cost $13. They also bought 2 brushes that cost $9 each. What was the total cost, not including tax, of the brushes and the paint they bought?
(A) $22, (B) $24, (C) $31, (D) $35
Answer: C
Solve for y. y – 2 + 3y = 10
(A) 2, (B) 3, (C) 4, (D) 5
Answer: B
Solve 3 over 2 * w = 66.
(A) 33, (B) 44, (C) 88, (D) 99
Answer: B
Write 5.875 as a mixed number or fraction in simplest form.
(A) 5 and 8 over 9, (B) 5 and 7 over 8, (C) 7 over 8, (D) 5 and 87 over 105
Answer: B
Solve the equation 124 = m + 34.
(A) 158, (B) 90, (C) 88, (D) 4,216
Answer: B
Zelma buys p pounds of bananas for 40 cents per pound. She pays the clerk with a twenty-dollar bill. The clerk subtracts the total cost of the bananas from the twenty-dollar bill to determine the amount of change to give Zelma. Which expression represents the amount of change Zelma should receive?
(A) p - 20, (B) 20 - 40p, (C) 20 - 0.40p, (D) 0.40p - 20
Answer: C
Please answer the following question with just the correct option (A, B, C, or D) without any explanation or additional text.
In xyz-space, what are the coordinates of the point on the plane 2x + y + 3z = 3 that is closest to the origin?
(A) '(0, 0, 1)', (B) '(3/7, 3/14, 9/14)', (C) '(7/15, 8/15, 1/15)', (D) '(5/6, 1/3, 1/3)'
Answer:","","","","","","","","","","","","","","","","","","","","","",""
"survey-html-form","48","3652516","0.0-4.0-1.14","0l470lfexldeb9q","6771bbe322322bf003bae1f2","67b62c430b9240ccd8986e70","67b63156388532ea4853c0e9","1","82264.69999998808","","","{""mcAnswer"":""B""}","","","In xyz-space, what are the coordinates of the point on the plane 2x + y + 3z = 3 that is closest to the origin?","[""(0, 0, 1)"",""(3/7, 3/14, 9/14)"",""(7/15, 8/15, 1/15)"",""(5/6, 1/3, 1/3)""]","B","D","modiste","","B","111","algLinUCB_0.9","diff-topics","college_mathematics","The following are multiple choice questions about high_school_mathematics.
Colton and his dad bought a gallon of paint that cost $13. They also bought 2 brushes that cost $9 each. What was the total cost, not including tax, of the brushes and the paint they bought?
(A) $22, (B) $24, (C) $31, (D) $35
Answer: C
Solve for y. y – 2 + 3y = 10
(A) 2, (B) 3, (C) 4, (D) 5
Answer: B
Solve 3 over 2 * w = 66.
(A) 33, (B) 44, (C) 88, (D) 99
Answer: B
Write 5.875 as a mixed number or fraction in simplest form.
(A) 5 and 8 over 9, (B) 5 and 7 over 8, (C) 7 over 8, (D) 5 and 87 over 105
Answer: B
Solve the equation 124 = m + 34.
(A) 158, (B) 90, (C) 88, (D) 4,216
Answer: B
Zelma buys p pounds of bananas for 40 cents per pound. She pays the clerk with a twenty-dollar bill. The clerk subtracts the total cost of the bananas from the twenty-dollar bill to determine the amount of change to give Zelma. Which expression represents the amount of change Zelma should receive?
(A) p - 20, (B) 20 - 40p, (C) 20 - 0.40p, (D) 0.40p - 20
Answer: C
Please answer the following question with just the correct option (A, B, C, or D) without any explanation or additional text.
In xyz-space, what are the coordinates of the point on the plane 2x + y + 3z = 3 that is closest to the origin?
(A) '(0, 0, 1)', (B) '(3/7, 3/14, 9/14)', (C) '(7/15, 8/15, 1/15)', (D) '(5/6, 1/3, 1/3)'
Answer:","","","","","","","","","","","","","","","","","","","","","",""
"","","","","","","","","","","","","","","","","","","","","","","","","","","","B","","","","","","","","","","","","","","","","","","","","",""
"","","","","","","","","","","","","","","","","","","","","","","","","","","","","false","175","-1","B","true","true","defer","[]","false","0","false","0","{""elementary_mathematics"":[""40/50"",""31/50"",""9/10""],""high_school_mathematics"":[""27/51"",""25/53"",""3/6""],""college_mathematics"":[""22/50"",""27/53"",""3/7""]}","{""elementary_mathematics"":false,""college_mathematics"":false,""high_school_mathematics"":false}","You should outsource this problem to the AI agent","null","null","false","null","null",""
"image-keyboard-response","49","3654029","0.0-4.0-2.14","0l470lfexldeb9q","6771bbe322322bf003bae1f2","67b62c430b9240ccd8986e70","67b63156388532ea4853c0e9","1","null","","","null","","","In xyz-space, what are the coordinates of the point on the plane 2x + y + 3z = 3 that is closest to the origin?","[""(0, 0, 1)"",""(3/7, 3/14, 9/14)"",""(7/15, 8/15, 1/15)"",""(5/6, 1/3, 1/3)""]","B","D","modiste","","B","111","algLinUCB_0.9","diff-topics","college_mathematics","The following are multiple choice questions about high_school_mathematics.
Colton and his dad bought a gallon of paint that cost $13. They also bought 2 brushes that cost $9 each. What was the total cost, not including tax, of the brushes and the paint they bought?
(A) $22, (B) $24, (C) $31, (D) $35
Answer: C
Solve for y. y – 2 + 3y = 10
(A) 2, (B) 3, (C) 4, (D) 5
Answer: B
Solve 3 over 2 * w = 66.
(A) 33, (B) 44, (C) 88, (D) 99
Answer: B
Write 5.875 as a mixed number or fraction in simplest form.
(A) 5 and 8 over 9, (B) 5 and 7 over 8, (C) 7 over 8, (D) 5 and 87 over 105
Answer: B
Solve the equation 124 = m + 34.
(A) 158, (B) 90, (C) 88, (D) 4,216
Answer: B
