"trial_type","trial_index","time_elapsed","internal_node_id","subject","prolific_id","study_id","session_id","condition","rt","url","view_history","response","question_order","value","question","options","llm_answer","population_answer","task","subj_id","label","example_id","variant","main_variant","topic","prompt","0","btn_clicked","score","timeToClick","modelPred","humanCorrect","modelCorrect","interfaceType","modelPredDist","human_support_used","human_support_clicks","llm_support_used","llm_support_clicks","recommendation_lists","incorrect_answers_by_category","recommendation","LLM_outsourcing_overridden","human_outsourcing_overridden","ai_orch_agreement","human_orch_agreement","self_orch_agreement","stimulus"
"pavlovia","0","709","0.0-0.0","ehgqn2t5yarktcd","67340dae06b44d7b77b79406","67b62c430b9240ccd8986e70","67b62f9e3784f91bcde2b1dd","1","","","","","","","","","","","","","","","","","","","","","","","","","","","","","","","","","","","","","","","",""
"external-html","1","15176","0.0-1.0","ehgqn2t5yarktcd","67340dae06b44d7b77b79406","67b62c430b9240ccd8986e70","67b62f9e3784f91bcde2b1dd","1","14348.900000035763","consent.html","","","","","","","","","","","","","","","","","","","","","","","","","","","","","","","","","","","","","",""
"instructions","2","246091","0.0-2.0-0.0","ehgqn2t5yarktcd","67340dae06b44d7b77b79406","67b62c430b9240ccd8986e70","67b62f9e3784f91bcde2b1dd","1","230914.10000002384","","[{""page_index"":0,""viewing_time"":15981.399999976158},{""page_index"":1,""viewing_time"":28932.900000035763},{""page_index"":2,""viewing_time"":11166.5},{""page_index"":3,""viewing_time"":14799.199999988079},{""page_index"":4,""viewing_time"":115033.39999997616},{""page_index"":5,""viewing_time"":29482.700000047684},{""page_index"":6,""viewing_time"":8030.899999976158},{""page_index"":7,""viewing_time"":7486.300000011921}]","","","","","","","","","","","","","","","","","","","","","","","","","","","","","","","","","","","","",""
"survey-multi-choice","3","262374","0.0-2.0-1.0","ehgqn2t5yarktcd","67340dae06b44d7b77b79406","67b62c430b9240ccd8986e70","67b62f9e3784f91bcde2b1dd","1","16279.5","","","{""Q0"":""The answer to a mutliple choice question."",""Q1"":""Clicking on a radio button.""}","[0,1]","","","","","","","","","","","","","","","","","","","","","","","","","","","","","","","","","","",""
"instructions","4","304359","0.0-3.0","ehgqn2t5yarktcd","67340dae06b44d7b77b79406","67b62c430b9240ccd8986e70","67b62f9e3784f91bcde2b1dd","1","41983.39999997616","","[{""page_index"":0,""viewing_time"":41982.69999998808}]","","","","","","","","","","","","","","","","","","","","","","","","","","","","","","","","","","","","",""
"call-function","5","304360","0.0-4.0-0.0","ehgqn2t5yarktcd","67340dae06b44d7b77b79406","67b62c430b9240ccd8986e70","67b62f9e3784f91bcde2b1dd","1","","","","","","defer","Which expression represents the phrase below? 3 fewer than a number, p","[""3-p"",""p+3"",""3/p"",""p-3""]","D","D","modiste","","D","97","algLinUCB_0.9","diff-topics","elementary_mathematics","The following are multiple choice questions about high_school_mathematics.
Colton and his dad bought a gallon of paint that cost $13. They also bought 2 brushes that cost $9 each. What was the total cost, not including tax, of the brushes and the paint they bought?
(A) $22, (B) $24, (C) $31, (D) $35
Answer: C
Solve for y. y – 2 + 3y = 10
(A) 2, (B) 3, (C) 4, (D) 5
Answer: B
Solve 3 over 2 * w = 66.
(A) 33, (B) 44, (C) 88, (D) 99
Answer: B
Write 5.875 as a mixed number or fraction in simplest form.
(A) 5 and 8 over 9, (B) 5 and 7 over 8, (C) 7 over 8, (D) 5 and 87 over 105
Answer: B
Solve the equation 124 = m + 34.
(A) 158, (B) 90, (C) 88, (D) 4,216
Answer: B
Zelma buys p pounds of bananas for 40 cents per pound. She pays the clerk with a twenty-dollar bill. The clerk subtracts the total cost of the bananas from the twenty-dollar bill to determine the amount of change to give Zelma. Which expression represents the amount of change Zelma should receive?
(A) p - 20, (B) 20 - 40p, (C) 20 - 0.40p, (D) 0.40p - 20
Answer: C
Please answer the following question with just the correct option (A, B, C, or D) without any explanation or additional text.
Which expression represents the phrase below? 3 fewer than a number, p
(A) '3-p', (B) 'p+3', (C) '3/p', (D) 'p-3'
Answer:","","","","","","","","","","","","","","","","","","","","","",""
"survey-html-form","6","321507","0.0-4.0-1.0","ehgqn2t5yarktcd","67340dae06b44d7b77b79406","67b62c430b9240ccd8986e70","67b62f9e3784f91bcde2b1dd","1","17143.80000001192","","","{""mcAnswer"":""D""}","","","Which expression represents the phrase below? 3 fewer than a number, p","[""3-p"",""p+3"",""3/p"",""p-3""]","D","D","modiste","","D","97","algLinUCB_0.9","diff-topics","elementary_mathematics","The following are multiple choice questions about high_school_mathematics.
Colton and his dad bought a gallon of paint that cost $13. They also bought 2 brushes that cost $9 each. What was the total cost, not including tax, of the brushes and the paint they bought?
(A) $22, (B) $24, (C) $31, (D) $35
Answer: C
Solve for y. y – 2 + 3y = 10
(A) 2, (B) 3, (C) 4, (D) 5
Answer: B
Solve 3 over 2 * w = 66.
(A) 33, (B) 44, (C) 88, (D) 99
Answer: B
Write 5.875 as a mixed number or fraction in simplest form.
(A) 5 and 8 over 9, (B) 5 and 7 over 8, (C) 7 over 8, (D) 5 and 87 over 105
Answer: B
Solve the equation 124 = m + 34.
(A) 158, (B) 90, (C) 88, (D) 4,216
Answer: B
Zelma buys p pounds of bananas for 40 cents per pound. She pays the clerk with a twenty-dollar bill. The clerk subtracts the total cost of the bananas from the twenty-dollar bill to determine the amount of change to give Zelma. Which expression represents the amount of change Zelma should receive?
(A) p - 20, (B) 20 - 40p, (C) 20 - 0.40p, (D) 0.40p - 20
Answer: C
Please answer the following question with just the correct option (A, B, C, or D) without any explanation or additional text.
Which expression represents the phrase below? 3 fewer than a number, p
(A) '3-p', (B) 'p+3', (C) '3/p', (D) 'p-3'
Answer:","","","","","","","","","","","","","","","","","","","","","",""
"","","","","","","","","","","","","","","","","","","","","","","","","","","","D","","","","","","","","","","","","","","","","","","","","",""
"","","","","","","","","","","","","","","","","","","","","","","","","","","","","false","110","-1","D","true","true","defer","[]","false","0","false","0","{""elementary_mathematics"":[""40/50"",""31/50"",""5/6""],""high_school_mathematics"":[""27/50"",""22/50"",""3 / 5""],""college_mathematics"":[""22/50"",""26/50"",""2 / 5""]}","{""elementary_mathematics"":false}","You should attempt this problem by yourself","null","null","null","null","true",""
"image-keyboard-response","7","323023","0.0-4.0-2.0","ehgqn2t5yarktcd","67340dae06b44d7b77b79406","67b62c430b9240ccd8986e70","67b62f9e3784f91bcde2b1dd","1","null","","","null","","","Which expression represents the phrase below? 3 fewer than a number, p","[""3-p"",""p+3"",""3/p"",""p-3""]","D","D","modiste","","D","97","algLinUCB_0.9","diff-topics","elementary_mathematics","The following are multiple choice questions about high_school_mathematics.
Colton and his dad bought a gallon of paint that cost $13. They also bought 2 brushes that cost $9 each. What was the total cost, not including tax, of the brushes and the paint they bought?
(A) $22, (B) $24, (C) $31, (D) $35
Answer: C
Solve for y. y – 2 + 3y = 10
(A) 2, (B) 3, (C) 4, (D) 5
Answer: B
Solve 3 over 2 * w = 66.
(A) 33, (B) 44, (C) 88, (D) 99
Answer: B
Write 5.875 as a mixed number or fraction in simplest form.
(A) 5 and 8 over 9, (B) 5 and 7 over 8, (C) 7 over 8, (D) 5 and 87 over 105
Answer: B
Solve the equation 124 = m + 34.
(A) 158, (B) 90, (C) 88, (D) 4,216
Answer: B
Zelma buys p pounds of bananas for 40 cents per pound. She pays the clerk with a twenty-dollar bill. The clerk subtracts the total cost of the bananas from the twenty-dollar bill to determine the amount of change to give Zelma. Which expression represents the amount of change Zelma should receive?
(A) p - 20, (B) 20 - 40p, (C) 20 - 0.40p, (D) 0.40p - 20
Answer: C
Please answer the following question with just the correct option (A, B, C, or D) without any explanation or additional text.
Which expression represents the phrase below? 3 fewer than a number, p
(A) '3-p', (B) 'p+3', (C) '3/p', (D) 'p-3'
Answer:","","","","","","","","","","","","","","","","","","","","","","feedback_imgs/Correct.png"
"call-function","8","323024","0.0-4.0-0.1","ehgqn2t5yarktcd","67340dae06b44d7b77b79406","67b62c430b9240ccd8986e70","67b62f9e3784f91bcde2b1dd","1","","","","","","defer","How many ways are there to put 4 distinguishable balls into 2 indistinguishable boxes?","[""7"",""11"",""16"",""8""]","B","D","modiste","","D","67","algLinUCB_0.9","diff-topics","high_school_mathematics","The following are multiple choice questions about high_school_mathematics.
Colton and his dad bought a gallon of paint that cost $13. They also bought 2 brushes that cost $9 each. What was the total cost, not including tax, of the brushes and the paint they bought?
(A) $22, (B) $24, (C) $31, (D) $35
Answer: C
Solve for y. y – 2 + 3y = 10
(A) 2, (B) 3, (C) 4, (D) 5
Answer: B
Solve 3 over 2 * w = 66.
(A) 33, (B) 44, (C) 88, (D) 99
Answer: B
Write 5.875 as a mixed number or fraction in simplest form.
(A) 5 and 8 over 9, (B) 5 and 7 over 8, (C) 7 over 8, (D) 5 and 87 over 105
Answer: B
Solve the equation 124 = m + 34.
(A) 158, (B) 90, (C) 88, (D) 4,216
Answer: B
Zelma buys p pounds of bananas for 40 cents per pound. She pays the clerk with a twenty-dollar bill. The clerk subtracts the total cost of the bananas from the twenty-dollar bill to determine the amount of change to give Zelma. Which expression represents the amount of change Zelma should receive?
(A) p - 20, (B) 20 - 40p, (C) 20 - 0.40p, (D) 0.40p - 20
Answer: C
Please answer the following question with just the correct option (A, B, C, or D) without any explanation or additional text.
How many ways are there to put 4 distinguishable balls into 2 indistinguishable boxes?
(A) '7', (B) '11', (C) '16', (D) '8'
Answer:","","","","","","","","","","","","true","2","","","","","","","","",""
"survey-html-form","9","479208","0.0-4.0-1.1","ehgqn2t5yarktcd","67340dae06b44d7b77b79406","67b62c430b9240ccd8986e70","67b62f9e3784f91bcde2b1dd","1","156182.19999998808","","","{""mcAnswer"":""D""}","","","How many ways are there to put 4 distinguishable balls into 2 indistinguishable boxes?","[""7"",""11"",""16"",""8""]","B","D","modiste","","D","67","algLinUCB_0.9","diff-topics","high_school_mathematics","The following are multiple choice questions about high_school_mathematics.
Colton and his dad bought a gallon of paint that cost $13. They also bought 2 brushes that cost $9 each. What was the total cost, not including tax, of the brushes and the paint they bought?
(A) $22, (B) $24, (C) $31, (D) $35
Answer: C
Solve for y. y – 2 + 3y = 10
(A) 2, (B) 3, (C) 4, (D) 5
Answer: B
Solve 3 over 2 * w = 66.
(A) 33, (B) 44, (C) 88, (D) 99
Answer: B
Write 5.875 as a mixed number or fraction in simplest form.
(A) 5 and 8 over 9, (B) 5 and 7 over 8, (C) 7 over 8, (D) 5 and 87 over 105
Answer: B
Solve the equation 124 = m + 34.
(A) 158, (B) 90, (C) 88, (D) 4,216
Answer: B
Zelma buys p pounds of bananas for 40 cents per pound. She pays the clerk with a twenty-dollar bill. The clerk subtracts the total cost of the bananas from the twenty-dollar bill to determine the amount of change to give Zelma. Which expression represents the amount of change Zelma should receive?
(A) p - 20, (B) 20 - 40p, (C) 20 - 0.40p, (D) 0.40p - 20
Answer: C
Please answer the following question with just the correct option (A, B, C, or D) without any explanation or additional text.
How many ways are there to put 4 distinguishable balls into 2 indistinguishable boxes?
(A) '7', (B) '11', (C) '16', (D) '8'
Answer:","","","","","","","","","","","","","","","","","","","","","",""
"","","","","","","","","","","","","","","","","","","","","","","","","","","","D","","","","","","","","","","","","","","","","","","","","",""
"","","","","","","","","","","","","","","","","","","","","","","","","","","","","false","117","-1","B","true","false","defer","[]","false","0","true","2","{""elementary_mathematics"":[""40/50"",""31/50"",""5/6""],""high_school_mathematics"":[""27/50"",""23/51"",""3 / 5""],""college_mathematics"":[""22/50"",""26/50"",""2 / 5""]}","{""elementary_mathematics"":false,""high_school_mathematics"":false}","You should attempt this problem by yourself","true","null","null","null","false",""
"image-keyboard-response","10","480724","0.0-4.0-2.1","ehgqn2t5yarktcd","67340dae06b44d7b77b79406","67b62c430b9240ccd8986e70","67b62f9e3784f91bcde2b1dd","1","null","","","null","","","How many ways are there to put 4 distinguishable balls into 2 indistinguishable boxes?","[""7"",""11"",""16"",""8""]","B","D","modiste","","D","67","algLinUCB_0.9","diff-topics","high_school_mathematics","The following are multiple choice questions about high_school_mathematics.
Colton and his dad bought a gallon of paint that cost $13. They also bought 2 brushes that cost $9 each. What was the total cost, not including tax, of the brushes and the paint they bought?
(A) $22, (B) $24, (C) $31, (D) $35
Answer: C
Solve for y. y – 2 + 3y = 10
(A) 2, (B) 3, (C) 4, (D) 5
Answer: B
Solve 3 over 2 * w = 66.
(A) 33, (B) 44, (C) 88, (D) 99
Answer: B
Write 5.875 as a mixed number or fraction in simplest form.
(A) 5 and 8 over 9, (B) 5 and 7 over 8, (C) 7 over 8, (D) 5 and 87 over 105
Answer: B
Solve the equation 124 = m + 34.
(A) 158, (B) 90, (C) 88, (D) 4,216
Answer: B
Zelma buys p pounds of bananas for 40 cents per pound. She pays the clerk with a twenty-dollar bill. The clerk subtracts the total cost of the bananas from the twenty-dollar bill to determine the amount of change to give Zelma. Which expression represents the amount of change Zelma should receive?
(A) p - 20, (B) 20 - 40p, (C) 20 - 0.40p, (D) 0.40p - 20
Answer: C
Please answer the following question with just the correct option (A, B, C, or D) without any explanation or additional text.
How many ways are there to put 4 distinguishable balls into 2 indistinguishable boxes?
(A) '7', (B) '11', (C) '16', (D) '8'
Answer:","","","","","","","","","","","","","","","","","","","","","","feedback_imgs/Correct.png"
"call-function","11","480724","0.0-4.0-0.2","ehgqn2t5yarktcd","67340dae06b44d7b77b79406","67b62c430b9240ccd8986e70","67b62f9e3784f91bcde2b1dd","1","","","","","","defer","S(n) is a statement about positive integers n such that whenever S(k) is true, S(k + 1) must also be true. Furthermore, there exists some positive integer n0 such that S(n0) is not true. Of the following, which is the strongest conclusion that can be drawn?","[""S(n0 + 1) is not true."",""S(n0 - 1) is not true."",""S(n) is not true for any n <= n0"",""S(n) is not true for any n >= n0""]","D","B","modiste","","C","110","algLinUCB_0.9","diff-topics","college_mathematics","The following are multiple choice questions about high_school_mathematics.
Colton and his dad bought a gallon of paint that cost $13. They also bought 2 brushes that cost $9 each. What was the total cost, not including tax, of the brushes and the paint they bought?
(A) $22, (B) $24, (C) $31, (D) $35
Answer: C
Solve for y. y – 2 + 3y = 10
(A) 2, (B) 3, (C) 4, (D) 5
Answer: B
Solve 3 over 2 * w = 66.
(A) 33, (B) 44, (C) 88, (D) 99
Answer: B
Write 5.875 as a mixed number or fraction in simplest form.
(A) 5 and 8 over 9, (B) 5 and 7 over 8, (C) 7 over 8, (D) 5 and 87 over 105
Answer: B
Solve the equation 124 = m + 34.
(A) 158, (B) 90, (C) 88, (D) 4,216
Answer: B
Zelma buys p pounds of bananas for 40 cents per pound. She pays the clerk with a twenty-dollar bill. The clerk subtracts the total cost of the bananas from the twenty-dollar bill to determine the amount of change to give Zelma. Which expression represents the amount of change Zelma should receive?
(A) p - 20, (B) 20 - 40p, (C) 20 - 0.40p, (D) 0.40p - 20
Answer: C
Please answer the following question with just the correct option (A, B, C, or D) without any explanation or additional text.
S(n) is a statement about positive integers n such that whenever S(k) is true, S(k + 1) must also be true. Furthermore, there exists some positive integer n0 such that S(n0) is not true. Of the following, which is the strongest conclusion that can be drawn?
(A) 'S(n0 + 1) is not true.', (B) 'S(n0 - 1) is not true.', (C) 'S(n) is not true for any n <= n0', (D) 'S(n) is not true for any n >= n0'
Answer:","","","","","","","","","","true","2","","","","","","","","","","",""
"survey-html-form","12","565822","0.0-4.0-1.2","ehgqn2t5yarktcd","67340dae06b44d7b77b79406","67b62c430b9240ccd8986e70","67b62f9e3784f91bcde2b1dd","1","85096","","","{""mcAnswer"":""B""}","","","S(n) is a statement about positive integers n such that whenever S(k) is true, S(k + 1) must also be true. Furthermore, there exists some positive integer n0 such that S(n0) is not true. Of the following, which is the strongest conclusion that can be drawn?","[""S(n0 + 1) is not true."",""S(n0 - 1) is not true."",""S(n) is not true for any n <= n0"",""S(n) is not true for any n >= n0""]","D","B","modiste","","C","110","algLinUCB_0.9","diff-topics","college_mathematics","The following are multiple choice questions about high_school_mathematics.
Colton and his dad bought a gallon of paint that cost $13. They also bought 2 brushes that cost $9 each. What was the total cost, not including tax, of the brushes and the paint they bought?
(A) $22, (B) $24, (C) $31, (D) $35
Answer: C
Solve for y. y – 2 + 3y = 10
(A) 2, (B) 3, (C) 4, (D) 5
Answer: B
Solve 3 over 2 * w = 66.
(A) 33, (B) 44, (C) 88, (D) 99
Answer: B
Write 5.875 as a mixed number or fraction in simplest form.
(A) 5 and 8 over 9, (B) 5 and 7 over 8, (C) 7 over 8, (D) 5 and 87 over 105
Answer: B
Solve the equation 124 = m + 34.
(A) 158, (B) 90, (C) 88, (D) 4,216
Answer: B
Zelma buys p pounds of bananas for 40 cents per pound. She pays the clerk with a twenty-dollar bill. The clerk subtracts the total cost of the bananas from the twenty-dollar bill to determine the amount of change to give Zelma. Which expression represents the amount of change Zelma should receive?
(A) p - 20, (B) 20 - 40p, (C) 20 - 0.40p, (D) 0.40p - 20
Answer: C
Please answer the following question with just the correct option (A, B, C, or D) without any explanation or additional text.
S(n) is a statement about positive integers n such that whenever S(k) is true, S(k + 1) must also be true. Furthermore, there exists some positive integer n0 such that S(n0) is not true. Of the following, which is the strongest conclusion that can be drawn?
(A) 'S(n0 + 1) is not true.', (B) 'S(n0 - 1) is not true.', (C) 'S(n) is not true for any n <= n0', (D) 'S(n) is not true for any n >= n0'
Answer:","","","","","","","","","","","","","","","","","","","","","",""
"","","","","","","","","","","","","","","","","","","","","","","","","","","","B","","","","","","","","","","","","","","","","","","","","",""
"","","","","","","","","","","","","","","","","","","","","","","","","","","","","false","110","-1","D","false","false","defer","[]","true","2","false","0","{""elementary_mathematics"":[""40/50"",""31/50"",""5/6""],""high_school_mathematics"":[""27/50"",""23/51"",""3 / 5""],""college_mathematics"":[""22/51"",""26/50"",""2 / 5""]}","{""elementary_mathematics"":false,""high_school_mathematics"":false,""college_mathematics"":false}","You should outsource this problem to the AI agent","null","false","false","null","null",""
"image-keyboard-response","13","567333","0.0-4.0-2.2","ehgqn2t5yarktcd","67340dae06b44d7b77b79406","67b62c430b9240ccd8986e70","67b62f9e3784f91bcde2b1dd","1","null","","","null","","","S(n) is a statement about positive integers n such that whenever S(k) is true, S(k + 1) must also be true. Furthermore, there exists some positive integer n0 such that S(n0) is not true. Of the following, which is the strongest conclusion that can be drawn?","[""S(n0 + 1) is not true."",""S(n0 - 1) is not true."",""S(n) is not true for any n <= n0"",""S(n) is not true for any n >= n0""]","D","B","modiste","","C","110","algLinUCB_0.9","diff-topics","college_mathematics","The following are multiple choice questions about high_school_mathematics.
Colton and his dad bought a gallon of paint that cost $13. They also bought 2 brushes that cost $9 each. What was the total cost, not including tax, of the brushes and the paint they bought?
(A) $22, (B) $24, (C) $31, (D) $35
Answer: C
Solve for y. y – 2 + 3y = 10
(A) 2, (B) 3, (C) 4, (D) 5
Answer: B
Solve 3 over 2 * w = 66.
(A) 33, (B) 44, (C) 88, (D) 99
Answer: B
Write 5.875 as a mixed number or fraction in simplest form.
(A) 5 and 8 over 9, (B) 5 and 7 over 8, (C) 7 over 8, (D) 5 and 87 over 105
Answer: B
Solve the equation 124 = m + 34.
(A) 158, (B) 90, (C) 88, (D) 4,216
Answer: B
Zelma buys p pounds of bananas for 40 cents per pound. She pays the clerk with a twenty-dollar bill. The clerk subtracts the total cost of the bananas from the twenty-dollar bill to determine the amount of change to give Zelma. Which expression represents the amount of change Zelma should receive?
(A) p - 20, (B) 20 - 40p, (C) 20 - 0.40p, (D) 0.40p - 20
Answer: C
Please answer the following question with just the correct option (A, B, C, or D) without any explanation or additional text.
S(n) is a statement about positive integers n such that whenever S(k) is true, S(k + 1) must also be true. Furthermore, there exists some positive integer n0 such that S(n0) is not true. Of the following, which is the strongest conclusion that can be drawn?
(A) 'S(n0 + 1) is not true.', (B) 'S(n0 - 1) is not true.', (C) 'S(n) is not true for any n <= n0', (D) 'S(n) is not true for any n >= n0'
Answer:","","","","","","","","","","","","","","","","","","","","","","feedback_imgs/Incorrect.png"
"call-function","14","567333","0.0-4.0-0.3","ehgqn2t5yarktcd","67340dae06b44d7b77b79406","67b62c430b9240ccd8986e70","67b62f9e3784f91bcde2b1dd","1","","","","","","defer","Statement 1 |  Suppose ∑|a_i| diverges and ∑ a_i = 2. There is a rearrangement a_i_k of the terms such that ∑ a_i_k = 4. Statement 2 | There exists metric spaces X and Y with X closed and bounded and a continuous mapping f : X → Y such that f(X) is NOT ""closed and bounded"".","[""True, True"",""True, False"",""False, True"",""False, False""]","B","C","modiste","","A","118","algLinUCB_0.9","diff-topics","college_mathematics","The following are multiple choice questions about high_school_mathematics.
Colton and his dad bought a gallon of paint that cost $13. They also bought 2 brushes that cost $9 each. What was the total cost, not including tax, of the brushes and the paint they bought?
(A) $22, (B) $24, (C) $31, (D) $35
Answer: C
Solve for y. y – 2 + 3y = 10
(A) 2, (B) 3, (C) 4, (D) 5
Answer: B
Solve 3 over 2 * w = 66.
(A) 33, (B) 44, (C) 88, (D) 99
Answer: B
Write 5.875 as a mixed number or fraction in simplest form.
(A) 5 and 8 over 9, (B) 5 and 7 over 8, (C) 7 over 8, (D) 5 and 87 over 105
Answer: B
Solve the equation 124 = m + 34.
(A) 158, (B) 90, (C) 88, (D) 4,216
Answer: B
Zelma buys p pounds of bananas for 40 cents per pound. She pays the clerk with a twenty-dollar bill. The clerk subtracts the total cost of the bananas from the twenty-dollar bill to determine the amount of change to give Zelma. Which expression represents the amount of change Zelma should receive?
(A) p - 20, (B) 20 - 40p, (C) 20 - 0.40p, (D) 0.40p - 20
Answer: C
Please answer the following question with just the correct option (A, B, C, or D) without any explanation or additional text.
Statement 1 |  Suppose ∑|a_i| diverges and ∑ a_i = 2. There is a rearrangement a_i_k of the terms such that ∑ a_i_k = 4. Statement 2 | There exists metric spaces X and Y with X closed and bounded and a continuous mapping f : X → Y such that f(X) is NOT “closed and bounded”.
(A) 'True, True', (B) 'True, False', (C) 'False, True', (D) 'False, False'
Answer:","","","","","","","","","","","","true","2","","","","","","","","",""
"survey-html-form","15","595490","0.0-4.0-1.3","ehgqn2t5yarktcd","67340dae06b44d7b77b79406","67b62c430b9240ccd8986e70","67b62f9e3784f91bcde2b1dd","1","28155","","","{""mcAnswer"":""B""}","","","Statement 1 |  Suppose ∑|a_i| diverges and ∑ a_i = 2. There is a rearrangement a_i_k of the terms such that ∑ a_i_k = 4. Statement 2 | There exists metric spaces X and Y with X closed and bounded and a continuous mapping f : X → Y such that f(X) is NOT ""closed and bounded"".","[""True, True"",""True, False"",""False, True"",""False, False""]","B","C","modiste","","A","118","algLinUCB_0.9","diff-topics","college_mathematics","The following are multiple choice questions about high_school_mathematics.
Colton and his dad bought a gallon of paint that cost $13. They also bought 2 brushes that cost $9 each. What was the total cost, not including tax, of the brushes and the paint they bought?
(A) $22, (B) $24, (C) $31, (D) $35
Answer: C
Solve for y. y – 2 + 3y = 10
(A) 2, (B) 3, (C) 4, (D) 5
Answer: B
Solve 3 over 2 * w = 66.
(A) 33, (B) 44, (C) 88, (D) 99
Answer: B
Write 5.875 as a mixed number or fraction in simplest form.
(A) 5 and 8 over 9, (B) 5 and 7 over 8, (C) 7 over 8, (D) 5 and 87 over 105
Answer: B
Solve the equation 124 = m + 34.
(A) 158, (B) 90, (C) 88, (D) 4,216
Answer: B
Zelma buys p pounds of bananas for 40 cents per pound. She pays the clerk with a twenty-dollar bill. The clerk subtracts the total cost of the bananas from the twenty-dollar bill to determine the amount of change to give Zelma. Which expression represents the amount of change Zelma should receive?
(A) p - 20, (B) 20 - 40p, (C) 20 - 0.40p, (D) 0.40p - 20
Answer: C
Please answer the following question with just the correct option (A, B, C, or D) without any explanation or additional text.
Statement 1 |  Suppose ∑|a_i| diverges and ∑ a_i = 2. There is a rearrangement a_i_k of the terms such that ∑ a_i_k = 4. Statement 2 | There exists metric spaces X and Y with X closed and bounded and a continuous mapping f : X → Y such that f(X) is NOT “closed and bounded”.
(A) 'True, True', (B) 'True, False', (C) 'False, True', (D) 'False, False'
Answer:","","","","","","","","","","","","","","","","","","","","","",""
"","","","","","","","","","","","","","","","","","","","","","","","","","","","B","","","","","","","","","","","","","","","","","","","","",""
"","","","","","","","","","","","","","","","","","","","","","","","","","","","","false","107","-1","B","false","false","defer","[]","false","0","true","2","{""elementary_mathematics"":[""40/50"",""31/50"",""5/6""],""high_school_mathematics"":[""27/50"",""23/51"",""3 / 5""],""college_mathematics"":[""22/51"",""26/51"",""2 / 5""]}","{""elementary_mathematics"":false,""high_school_mathematics"":false,""college_mathematics"":false}","You should outsource this problem to the AI agent","false","null","true","null","null",""
"image-keyboard-response","16","596996","0.0-4.0-2.3","ehgqn2t5yarktcd","67340dae06b44d7b77b79406","67b62c430b9240ccd8986e70","67b62f9e3784f91bcde2b1dd","1","null","","","null","","","Statement 1 |  Suppose ∑|a_i| diverges and ∑ a_i = 2. There is a rearrangement a_i_k of the terms such that ∑ a_i_k = 4. Statement 2 | There exists metric spaces X and Y with X closed and bounded and a continuous mapping f : X → Y such that f(X) is NOT ""closed and bounded"".","[""True, True"",""True, False"",""False, True"",""False, False""]","B","C","modiste","","A","118","algLinUCB_0.9","diff-topics","college_mathematics","The following are multiple choice questions about high_school_mathematics.
Colton and his dad bought a gallon of paint that cost $13. They also bought 2 brushes that cost $9 each. What was the total cost, not including tax, of the brushes and the paint they bought?
(A) $22, (B) $24, (C) $31, (D) $35
Answer: C
Solve for y. y – 2 + 3y = 10
(A) 2, (B) 3, (C) 4, (D) 5
Answer: B
Solve 3 over 2 * w = 66.
(A) 33, (B) 44, (C) 88, (D) 99
Answer: B
Write 5.875 as a mixed number or fraction in simplest form.
(A) 5 and 8 over 9, (B) 5 and 7 over 8, (C) 7 over 8, (D) 5 and 87 over 105
Answer: B
Solve the equation 124 = m + 34.
(A) 158, (B) 90, (C) 88, (D) 4,216
Answer: B
Zelma buys p pounds of bananas for 40 cents per pound. She pays the clerk with a twenty-dollar bill. The clerk subtracts the total cost of the bananas from the twenty-dollar bill to determine the amount of change to give Zelma. Which expression represents the amount of change Zelma should receive?
(A) p - 20, (B) 20 - 40p, (C) 20 - 0.40p, (D) 0.40p - 20
Answer: C
Please answer the following question with just the correct option (A, B, C, or D) without any explanation or additional text.
Statement 1 |  Suppose ∑|a_i| diverges and ∑ a_i = 2. There is a rearrangement a_i_k of the terms such that ∑ a_i_k = 4. Statement 2 | There exists metric spaces X and Y with X closed and bounded and a continuous mapping f : X → Y such that f(X) is NOT “closed and bounded”.
(A) 'True, True', (B) 'True, False', (C) 'False, True', (D) 'False, False'
Answer:","","","","","","","","","","","","","","","","","","","","","","feedback_imgs/Incorrect.png"
"call-function","17","596997","0.0-4.0-0.4","ehgqn2t5yarktcd","67340dae06b44d7b77b79406","67b62c430b9240ccd8986e70","67b62f9e3784f91bcde2b1dd","1","","","","","","defer","A worker on an assembly line takes 7 hours to produce 22 parts. At that rate how many parts can she produce in 35 hours?","[""220 parts"",""770 parts"",""4 parts"",""110 parts""]","D","D","modiste","","D","94","algLinUCB_0.9","diff-topics","elementary_mathematics","The following are multiple choice questions about high_school_mathematics.
Colton and his dad bought a gallon of paint that cost $13. They also bought 2 brushes that cost $9 each. What was the total cost, not including tax, of the brushes and the paint they bought?
(A) $22, (B) $24, (C) $31, (D) $35
Answer: C
Solve for y. y – 2 + 3y = 10
(A) 2, (B) 3, (C) 4, (D) 5
Answer: B
Solve 3 over 2 * w = 66.
(A) 33, (B) 44, (C) 88, (D) 99
Answer: B
Write 5.875 as a mixed number or fraction in simplest form.
(A) 5 and 8 over 9, (B) 5 and 7 over 8, (C) 7 over 8, (D) 5 and 87 over 105
Answer: B
Solve the equation 124 = m + 34.
(A) 158, (B) 90, (C) 88, (D) 4,216
Answer: B
Zelma buys p pounds of bananas for 40 cents per pound. She pays the clerk with a twenty-dollar bill. The clerk subtracts the total cost of the bananas from the twenty-dollar bill to determine the amount of change to give Zelma. Which expression represents the amount of change Zelma should receive?
(A) p - 20, (B) 20 - 40p, (C) 20 - 0.40p, (D) 0.40p - 20
Answer: C
Please answer the following question with just the correct option (A, B, C, or D) without any explanation or additional text.
A worker on an assembly line takes 7 hours to produce 22 parts. At that rate how many parts can she produce in 35 hours?
(A) '220 parts', (B) '770 parts', (C) '4 parts', (D) '110 parts'
Answer:","","","","","","","","","","","","","","","","","","","","","",""
"survey-html-form","18","628238","0.0-4.0-1.4","ehgqn2t5yarktcd","67340dae06b44d7b77b79406","67b62c430b9240ccd8986e70","67b62f9e3784f91bcde2b1dd","1","31239.399999976158","","","{""mcAnswer"":""D""}","","","A worker on an assembly line takes 7 hours to produce 22 parts. At that rate how many parts can she produce in 35 hours?","[""220 parts"",""770 parts"",""4 parts"",""110 parts""]","D","D","modiste","","D","94","algLinUCB_0.9","diff-topics","elementary_mathematics","The following are multiple choice questions about high_school_mathematics.
Colton and his dad bought a gallon of paint that cost $13. They also bought 2 brushes that cost $9 each. What was the total cost, not including tax, of the brushes and the paint they bought?
(A) $22, (B) $24, (C) $31, (D) $35
Answer: C
Solve for y. y – 2 + 3y = 10
(A) 2, (B) 3, (C) 4, (D) 5
Answer: B
Solve 3 over 2 * w = 66.
(A) 33, (B) 44, (C) 88, (D) 99
Answer: B
Write 5.875 as a mixed number or fraction in simplest form.
(A) 5 and 8 over 9, (B) 5 and 7 over 8, (C) 7 over 8, (D) 5 and 87 over 105
Answer: B
Solve the equation 124 = m + 34.
(A) 158, (B) 90, (C) 88, (D) 4,216
Answer: B
Zelma buys p pounds of bananas for 40 cents per pound. She pays the clerk with a twenty-dollar bill. The clerk subtracts the total cost of the bananas from the twenty-dollar bill to determine the amount of change to give Zelma. Which expression represents the amount of change Zelma should receive?
(A) p - 20, (B) 20 - 40p, (C) 20 - 0.40p, (D) 0.40p - 20
Answer: C
Please answer the following question with just the correct option (A, B, C, or D) without any explanation or additional text.
A worker on an assembly line takes 7 hours to produce 22 parts. At that rate how many parts can she produce in 35 hours?
(A) '220 parts', (B) '770 parts', (C) '4 parts', (D) '110 parts'
Answer:","","","","","","","","","","","","","","","","","","","","","",""
"","","","","","","","","","","","","","","","","","","","","","","","","","","","D","","","","","","","","","","","","","","","","","","","","",""
"","","","","","","","","","","","","","","","","","","","","","","","","","","","","false","117","-1","D","true","true","defer","[]","false","0","false","0","{""elementary_mathematics"":[""40/50"",""31/50"",""6/7""],""high_school_mathematics"":[""27/50"",""23/51"",""3 / 5""],""college_mathematics"":[""22/51"",""26/51"",""2 / 5""]}","{""elementary_mathematics"":false,""high_school_mathematics"":false,""college_mathematics"":false}","You should attempt this problem by yourself","null","null","null","null","true",""
"image-keyboard-response","19","629752","0.0-4.0-2.4","ehgqn2t5yarktcd","67340dae06b44d7b77b79406","67b62c430b9240ccd8986e70","67b62f9e3784f91bcde2b1dd","1","null","","","null","","","A worker on an assembly line takes 7 hours to produce 22 parts. At that rate how many parts can she produce in 35 hours?","[""220 parts"",""770 parts"",""4 parts"",""110 parts""]","D","D","modiste","","D","94","algLinUCB_0.9","diff-topics","elementary_mathematics","The following are multiple choice questions about high_school_mathematics.
Colton and his dad bought a gallon of paint that cost $13. They also bought 2 brushes that cost $9 each. What was the total cost, not including tax, of the brushes and the paint they bought?
(A) $22, (B) $24, (C) $31, (D) $35
Answer: C
Solve for y. y – 2 + 3y = 10
(A) 2, (B) 3, (C) 4, (D) 5
Answer: B
Solve 3 over 2 * w = 66.
(A) 33, (B) 44, (C) 88, (D) 99
Answer: B
Write 5.875 as a mixed number or fraction in simplest form.
(A) 5 and 8 over 9, (B) 5 and 7 over 8, (C) 7 over 8, (D) 5 and 87 over 105
Answer: B
Solve the equation 124 = m + 34.
(A) 158, (B) 90, (C) 88, (D) 4,216
Answer: B
Zelma buys p pounds of bananas for 40 cents per pound. She pays the clerk with a twenty-dollar bill. The clerk subtracts the total cost of the bananas from the twenty-dollar bill to determine the amount of change to give Zelma. Which expression represents the amount of change Zelma should receive?
(A) p - 20, (B) 20 - 40p, (C) 20 - 0.40p, (D) 0.40p - 20
Answer: C
Please answer the following question with just the correct option (A, B, C, or D) without any explanation or additional text.
A worker on an assembly line takes 7 hours to produce 22 parts. At that rate how many parts can she produce in 35 hours?
(A) '220 parts', (B) '770 parts', (C) '4 parts', (D) '110 parts'
Answer:","","","","","","","","","","","","","","","","","","","","","","feedback_imgs/Correct.png"
"call-function","20","629753","0.0-4.0-0.5","ehgqn2t5yarktcd","67340dae06b44d7b77b79406","67b62c430b9240ccd8986e70","67b62f9e3784f91bcde2b1dd","1","","","","","","defer","Let C be the circle in the yz-plane whose equation is (y - 3)^2 + z^2 = 1. If C is revolved around the z-axis, the surface generated is a torus. What is the equation of this torus?","[""x^2 + y^2 + z^2 + 8 = 6y"",""(x^2 + y^2 + z^2)^2 = 8 + 36(x^2 + z^2)"",""(x^2 + y^2 + z^2 + 8)^2 = 36(x^2 + z^2)"",""(x^2 + y^2 + z^2 + 8)^2 = 36(x^2 + y^2)""]","B","B","modiste","","D","115","algLinUCB_0.9","diff-topics","college_mathematics","The following are multiple choice questions about high_school_mathematics.
Colton and his dad bought a gallon of paint that cost $13. They also bought 2 brushes that cost $9 each. What was the total cost, not including tax, of the brushes and the paint they bought?
(A) $22, (B) $24, (C) $31, (D) $35
Answer: C
Solve for y. y – 2 + 3y = 10
(A) 2, (B) 3, (C) 4, (D) 5
Answer: B
Solve 3 over 2 * w = 66.
(A) 33, (B) 44, (C) 88, (D) 99
Answer: B
Write 5.875 as a mixed number or fraction in simplest form.
(A) 5 and 8 over 9, (B) 5 and 7 over 8, (C) 7 over 8, (D) 5 and 87 over 105
Answer: B
Solve the equation 124 = m + 34.
(A) 158, (B) 90, (C) 88, (D) 4,216
Answer: B
Zelma buys p pounds of bananas for 40 cents per pound. She pays the clerk with a twenty-dollar bill. The clerk subtracts the total cost of the bananas from the twenty-dollar bill to determine the amount of change to give Zelma. Which expression represents the amount of change Zelma should receive?
(A) p - 20, (B) 20 - 40p, (C) 20 - 0.40p, (D) 0.40p - 20
Answer: C
Please answer the following question with just the correct option (A, B, C, or D) without any explanation or additional text.
Let C be the circle in the yz-plane whose equation is (y - 3)^2 + z^2 = 1. If C is revolved around the z-axis, the surface generated is a torus. What is the equation of this torus?
(A) 'x^2 + y^2 + z^2 + 8 = 6y', (B) '(x^2 + y^2 + z^2)^2 = 8 + 36(x^2 + z^2)', (C) '(x^2 + y^2 + z^2 + 8)^2 = 36(x^2 + z^2)', (D) '(x^2 + y^2 + z^2 + 8)^2 = 36(x^2 + y^2)'
Answer:","","","","","","","","","","","","","","","","","","","","","",""
"survey-html-form","21","684640","0.0-4.0-1.5","ehgqn2t5yarktcd","67340dae06b44d7b77b79406","67b62c430b9240ccd8986e70","67b62f9e3784f91bcde2b1dd","1","54884.40000003576","","","{""mcAnswer"":""C""}","","","Let C be the circle in the yz-plane whose equation is (y - 3)^2 + z^2 = 1. If C is revolved around the z-axis, the surface generated is a torus. What is the equation of this torus?","[""x^2 + y^2 + z^2 + 8 = 6y"",""(x^2 + y^2 + z^2)^2 = 8 + 36(x^2 + z^2)"",""(x^2 + y^2 + z^2 + 8)^2 = 36(x^2 + z^2)"",""(x^2 + y^2 + z^2 + 8)^2 = 36(x^2 + y^2)""]","B","B","modiste","","D","115","algLinUCB_0.9","diff-topics","college_mathematics","The following are multiple choice questions about high_school_mathematics.
Colton and his dad bought a gallon of paint that cost $13. They also bought 2 brushes that cost $9 each. What was the total cost, not including tax, of the brushes and the paint they bought?
(A) $22, (B) $24, (C) $31, (D) $35
Answer: C
Solve for y. y – 2 + 3y = 10
(A) 2, (B) 3, (C) 4, (D) 5
Answer: B
Solve 3 over 2 * w = 66.
(A) 33, (B) 44, (C) 88, (D) 99
Answer: B
Write 5.875 as a mixed number or fraction in simplest form.
(A) 5 and 8 over 9, (B) 5 and 7 over 8, (C) 7 over 8, (D) 5 and 87 over 105
Answer: B
Solve the equation 124 = m + 34.
(A) 158, (B) 90, (C) 88, (D) 4,216
Answer: B
Zelma buys p pounds of bananas for 40 cents per pound. She pays the clerk with a twenty-dollar bill. The clerk subtracts the total cost of the bananas from the twenty-dollar bill to determine the amount of change to give Zelma. Which expression represents the amount of change Zelma should receive?
(A) p - 20, (B) 20 - 40p, (C) 20 - 0.40p, (D) 0.40p - 20
Answer: C
Please answer the following question with just the correct option (A, B, C, or D) without any explanation or additional text.
Let C be the circle in the yz-plane whose equation is (y - 3)^2 + z^2 = 1. If C is revolved around the z-axis, the surface generated is a torus. What is the equation of this torus?
(A) 'x^2 + y^2 + z^2 + 8 = 6y', (B) '(x^2 + y^2 + z^2)^2 = 8 + 36(x^2 + z^2)', (C) '(x^2 + y^2 + z^2 + 8)^2 = 36(x^2 + z^2)', (D) '(x^2 + y^2 + z^2 + 8)^2 = 36(x^2 + y^2)'
Answer:","","","","","","","","","","","","","","","","","","","","","",""
"","","","","","","","","","","","","","","","","","","","","","","","","","","","C","","","","","","","","","","","","","","","","","","","","",""
"","","","","","","","","","","","","","","","","","","","","","","","","","","","","false","117","-1","B","false","false","defer","[]","false","0","false","0","{""elementary_mathematics"":[""40/50"",""31/50"",""6/7""],""high_school_mathematics"":[""27/50"",""23/51"",""3 / 5""],""college_mathematics"":[""22/51"",""26/51"",""2/6""]}","{""elementary_mathematics"":false,""high_school_mathematics"":false,""college_mathematics"":true}","You should outsource this problem to the AI agent","null","null","false","null","null",""
"image-keyboard-response","22","686151","0.0-4.0-2.5","ehgqn2t5yarktcd","67340dae06b44d7b77b79406","67b62c430b9240ccd8986e70","67b62f9e3784f91bcde2b1dd","1","null","","","null","","","Let C be the circle in the yz-plane whose equation is (y - 3)^2 + z^2 = 1. If C is revolved around the z-axis, the surface generated is a torus. What is the equation of this torus?","[""x^2 + y^2 + z^2 + 8 = 6y"",""(x^2 + y^2 + z^2)^2 = 8 + 36(x^2 + z^2)"",""(x^2 + y^2 + z^2 + 8)^2 = 36(x^2 + z^2)"",""(x^2 + y^2 + z^2 + 8)^2 = 36(x^2 + y^2)""]","B","B","modiste","","D","115","algLinUCB_0.9","diff-topics","college_mathematics","The following are multiple choice questions about high_school_mathematics.
Colton and his dad bought a gallon of paint that cost $13. They also bought 2 brushes that cost $9 each. What was the total cost, not including tax, of the brushes and the paint they bought?
(A) $22, (B) $24, (C) $31, (D) $35
Answer: C
Solve for y. y – 2 + 3y = 10
(A) 2, (B) 3, (C) 4, (D) 5
Answer: B
Solve 3 over 2 * w = 66.
(A) 33, (B) 44, (C) 88, (D) 99
Answer: B
Write 5.875 as a mixed number or fraction in simplest form.
(A) 5 and 8 over 9, (B) 5 and 7 over 8, (C) 7 over 8, (D) 5 and 87 over 105
Answer: B
Solve the equation 124 = m + 34.
(A) 158, (B) 90, (C) 88, (D) 4,216
Answer: B
Zelma buys p pounds of bananas for 40 cents per pound. She pays the clerk with a twenty-dollar bill. The clerk subtracts the total cost of the bananas from the twenty-dollar bill to determine the amount of change to give Zelma. Which expression represents the amount of change Zelma should receive?
(A) p - 20, (B) 20 - 40p, (C) 20 - 0.40p, (D) 0.40p - 20
Answer: C
Please answer the following question with just the correct option (A, B, C, or D) without any explanation or additional text.
Let C be the circle in the yz-plane whose equation is (y - 3)^2 + z^2 = 1. If C is revolved around the z-axis, the surface generated is a torus. What is the equation of this torus?
(A) 'x^2 + y^2 + z^2 + 8 = 6y', (B) '(x^2 + y^2 + z^2)^2 = 8 + 36(x^2 + z^2)', (C) '(x^2 + y^2 + z^2 + 8)^2 = 36(x^2 + z^2)', (D) '(x^2 + y^2 + z^2 + 8)^2 = 36(x^2 + y^2)'
Answer:","","","","","","","","","","","","","","","","","","","","","","feedback_imgs/Incorrect.png"
"call-function","23","686151","0.0-4.0-0.6","ehgqn2t5yarktcd","67340dae06b44d7b77b79406","67b62c430b9240ccd8986e70","67b62f9e3784f91bcde2b1dd","1","","","","","","defer","It takes Kate k days to write a GRE math practice test. It takes John j days to write a GRE math practice test. If Kate and John work on a practice test in alternating 2-day shifts, it takes them 10 days when Kate starts and 10.5 days when John starts. How long would it take the two to complete a practice test if Kate and John worked simultaneously?","[""9/2 days"",""5 days"",""41/8 days"",""36/7 days""]","C","B","modiste","","D","106","algLinUCB_0.9","diff-topics","college_mathematics","The following are multiple choice questions about high_school_mathematics.
Colton and his dad bought a gallon of paint that cost $13. They also bought 2 brushes that cost $9 each. What was the total cost, not including tax, of the brushes and the paint they bought?
(A) $22, (B) $24, (C) $31, (D) $35
Answer: C
Solve for y. y – 2 + 3y = 10
(A) 2, (B) 3, (C) 4, (D) 5
Answer: B
Solve 3 over 2 * w = 66.
(A) 33, (B) 44, (C) 88, (D) 99
Answer: B
Write 5.875 as a mixed number or fraction in simplest form.
(A) 5 and 8 over 9, (B) 5 and 7 over 8, (C) 7 over 8, (D) 5 and 87 over 105
Answer: B
Solve the equation 124 = m + 34.
(A) 158, (B) 90, (C) 88, (D) 4,216
Answer: B
Zelma buys p pounds of bananas for 40 cents per pound. She pays the clerk with a twenty-dollar bill. The clerk subtracts the total cost of the bananas from the twenty-dollar bill to determine the amount of change to give Zelma. Which expression represents the amount of change Zelma should receive?
(A) p - 20, (B) 20 - 40p, (C) 20 - 0.40p, (D) 0.40p - 20
Answer: C
Please answer the following question with just the correct option (A, B, C, or D) without any explanation or additional text.
It takes Kate k days to write a GRE math practice test. It takes John j days to write a GRE math practice test. If Kate and John work on a practice test in alternating 2-day shifts, it takes them 10 days when Kate starts and 10.5 days when John starts. How long would it take the two to complete a practice test if Kate and John worked simultaneously?
(A) '9/2 days', (B) '5 days', (C) '41/8 days', (D) '36/7 days'
Answer:","","","","","","","","","","true","2","","","","","","","","","","",""
"survey-html-form","24","770354","0.0-4.0-1.6","ehgqn2t5yarktcd","67340dae06b44d7b77b79406","67b62c430b9240ccd8986e70","67b62f9e3784f91bcde2b1dd","1","84200.10000002384","","","{""mcAnswer"":""B""}","","","It takes Kate k days to write a GRE math practice test. It takes John j days to write a GRE math practice test. If Kate and John work on a practice test in alternating 2-day shifts, it takes them 10 days when Kate starts and 10.5 days when John starts. How long would it take the two to complete a practice test if Kate and John worked simultaneously?","[""9/2 days"",""5 days"",""41/8 days"",""36/7 days""]","C","B","modiste","","D","106","algLinUCB_0.9","diff-topics","college_mathematics","The following are multiple choice questions about high_school_mathematics.
Colton and his dad bought a gallon of paint that cost $13. They also bought 2 brushes that cost $9 each. What was the total cost, not including tax, of the brushes and the paint they bought?
(A) $22, (B) $24, (C) $31, (D) $35
Answer: C
Solve for y. y – 2 + 3y = 10
(A) 2, (B) 3, (C) 4, (D) 5
Answer: B
Solve 3 over 2 * w = 66.
(A) 33, (B) 44, (C) 88, (D) 99
Answer: B
Write 5.875 as a mixed number or fraction in simplest form.
(A) 5 and 8 over 9, (B) 5 and 7 over 8, (C) 7 over 8, (D) 5 and 87 over 105
Answer: B
Solve the equation 124 = m + 34.
(A) 158, (B) 90, (C) 88, (D) 4,216
Answer: B
Zelma buys p pounds of bananas for 40 cents per pound. She pays the clerk with a twenty-dollar bill. The clerk subtracts the total cost of the bananas from the twenty-dollar bill to determine the amount of change to give Zelma. Which expression represents the amount of change Zelma should receive?
(A) p - 20, (B) 20 - 40p, (C) 20 - 0.40p, (D) 0.40p - 20
Answer: C
Please answer the following question with just the correct option (A, B, C, or D) without any explanation or additional text.
It takes Kate k days to write a GRE math practice test. It takes John j days to write a GRE math practice test. If Kate and John work on a practice test in alternating 2-day shifts, it takes them 10 days when Kate starts and 10.5 days when John starts. How long would it take the two to complete a practice test if Kate and John worked simultaneously?
(A) '9/2 days', (B) '5 days', (C) '41/8 days', (D) '36/7 days'
Answer:","","","","","","","","","","","","","","","","","","","","","",""
"","","","","","","","","","","","","","","","","","","","","","","","","","","","B","","","","","","","","","","","","","","","","","","","","",""
"","","","","","","","","","","","","","","","","","","","","","","","","","","","","false","110","-1","C","false","false","defer","[]","true","2","false","0","{""elementary_mathematics"":[""40/50"",""31/50"",""6/7""],""high_school_mathematics"":[""27/50"",""23/51"",""3 / 5""],""college_mathematics"":[""22/52"",""26/51"",""2/6""]}","{""elementary_mathematics"":false,""high_school_mathematics"":false,""college_mathematics"":false}","You were wrong by yourself on college_mathematics last time. You should outsource this problem to the AI agent","null","false","false","null","null",""
"image-keyboard-response","25","771871","0.0-4.0-2.6","ehgqn2t5yarktcd","67340dae06b44d7b77b79406","67b62c430b9240ccd8986e70","67b62f9e3784f91bcde2b1dd","1","null","","","null","","","It takes Kate k days to write a GRE math practice test. It takes John j days to write a GRE math practice test. If Kate and John work on a practice test in alternating 2-day shifts, it takes them 10 days when Kate starts and 10.5 days when John starts. How long would it take the two to complete a practice test if Kate and John worked simultaneously?","[""9/2 days"",""5 days"",""41/8 days"",""36/7 days""]","C","B","modiste","","D","106","algLinUCB_0.9","diff-topics","college_mathematics","The following are multiple choice questions about high_school_mathematics.
Colton and his dad bought a gallon of paint that cost $13. They also bought 2 brushes that cost $9 each. What was the total cost, not including tax, of the brushes and the paint they bought?
(A) $22, (B) $24, (C) $31, (D) $35
Answer: C
Solve for y. y – 2 + 3y = 10
(A) 2, (B) 3, (C) 4, (D) 5
Answer: B
Solve 3 over 2 * w = 66.
(A) 33, (B) 44, (C) 88, (D) 99
Answer: B
Write 5.875 as a mixed number or fraction in simplest form.
(A) 5 and 8 over 9, (B) 5 and 7 over 8, (C) 7 over 8, (D) 5 and 87 over 105
Answer: B
Solve the equation 124 = m + 34.
(A) 158, (B) 90, (C) 88, (D) 4,216
Answer: B
Zelma buys p pounds of bananas for 40 cents per pound. She pays the clerk with a twenty-dollar bill. The clerk subtracts the total cost of the bananas from the twenty-dollar bill to determine the amount of change to give Zelma. Which expression represents the amount of change Zelma should receive?
(A) p - 20, (B) 20 - 40p, (C) 20 - 0.40p, (D) 0.40p - 20
Answer: C
Please answer the following question with just the correct option (A, B, C, or D) without any explanation or additional text.
It takes Kate k days to write a GRE math practice test. It takes John j days to write a GRE math practice test. If Kate and John work on a practice test in alternating 2-day shifts, it takes them 10 days when Kate starts and 10.5 days when John starts. How long would it take the two to complete a practice test if Kate and John worked simultaneously?
(A) '9/2 days', (B) '5 days', (C) '41/8 days', (D) '36/7 days'
Answer:","","","","","","","","","","","","","","","","","","","","","","feedback_imgs/Incorrect.png"
"call-function","26","771872","0.0-4.0-0.7","ehgqn2t5yarktcd","67340dae06b44d7b77b79406","67b62c430b9240ccd8986e70","67b62f9e3784f91bcde2b1dd","1","","","","","","defer","Identify a solution for the equation x + 2.7 = 8.4 from the given numbers.","[""11.1"",""5.7"",""3.7"",""22.68""]","B","B","modiste","","B","84","algLinUCB_0.9","diff-topics","elementary_mathematics","The following are multiple choice questions about high_school_mathematics.
Colton and his dad bought a gallon of paint that cost $13. They also bought 2 brushes that cost $9 each. What was the total cost, not including tax, of the brushes and the paint they bought?
(A) $22, (B) $24, (C) $31, (D) $35
Answer: C
Solve for y. y – 2 + 3y = 10
(A) 2, (B) 3, (C) 4, (D) 5
Answer: B
Solve 3 over 2 * w = 66.
(A) 33, (B) 44, (C) 88, (D) 99
Answer: B
Write 5.875 as a mixed number or fraction in simplest form.
(A) 5 and 8 over 9, (B) 5 and 7 over 8, (C) 7 over 8, (D) 5 and 87 over 105
Answer: B
Solve the equation 124 = m + 34.
(A) 158, (B) 90, (C) 88, (D) 4,216
Answer: B
Zelma buys p pounds of bananas for 40 cents per pound. She pays the clerk with a twenty-dollar bill. The clerk subtracts the total cost of the bananas from the twenty-dollar bill to determine the amount of change to give Zelma. Which expression represents the amount of change Zelma should receive?
(A) p - 20, (B) 20 - 40p, (C) 20 - 0.40p, (D) 0.40p - 20
Answer: C
Please answer the following question with just the correct option (A, B, C, or D) without any explanation or additional text.
Identify a solution for the equation x + 2.7 = 8.4 from the given numbers.
(A) '11.1', (B) '5.7', (C) '3.7', (D) '22.68'
Answer:","","","","","","","","","","","","","","","","","","","","","",""
"survey-html-form","27","796421","0.0-4.0-1.7","ehgqn2t5yarktcd","67340dae06b44d7b77b79406","67b62c430b9240ccd8986e70","67b62f9e3784f91bcde2b1dd","1","24547.100000023842","","","{""mcAnswer"":""B""}","","","Identify a solution for the equation x + 2.7 = 8.4 from the given numbers.","[""11.1"",""5.7"",""3.7"",""22.68""]","B","B","modiste","","B","84","algLinUCB_0.9","diff-topics","elementary_mathematics","The following are multiple choice questions about high_school_mathematics.
Colton and his dad bought a gallon of paint that cost $13. They also bought 2 brushes that cost $9 each. What was the total cost, not including tax, of the brushes and the paint they bought?
(A) $22, (B) $24, (C) $31, (D) $35
Answer: C
Solve for y. y – 2 + 3y = 10
(A) 2, (B) 3, (C) 4, (D) 5
Answer: B
Solve 3 over 2 * w = 66.
(A) 33, (B) 44, (C) 88, (D) 99
Answer: B
Write 5.875 as a mixed number or fraction in simplest form.
(A) 5 and 8 over 9, (B) 5 and 7 over 8, (C) 7 over 8, (D) 5 and 87 over 105
Answer: B
Solve the equation 124 = m + 34.
(A) 158, (B) 90, (C) 88, (D) 4,216
Answer: B
Zelma buys p pounds of bananas for 40 cents per pound. She pays the clerk with a twenty-dollar bill. The clerk subtracts the total cost of the bananas from the twenty-dollar bill to determine the amount of change to give Zelma. Which expression represents the amount of change Zelma should receive?
(A) p - 20, (B) 20 - 40p, (C) 20 - 0.40p, (D) 0.40p - 20
Answer: C
Please answer the following question with just the correct option (A, B, C, or D) without any explanation or additional text.
Identify a solution for the equation x + 2.7 = 8.4 from the given numbers.
(A) '11.1', (B) '5.7', (C) '3.7', (D) '22.68'
Answer:","","","","","","","","","","","","","","","","","","","","","",""
"","","","","","","","","","","","","","","","","","","","","","","","","","","","B","","","","","","","","","","","","","","","","","","","","",""
"","","","","","","","","","","","","","","","","","","","","","","","","","","","","false","120","-1","B","true","true","defer","[]","false","0","false","0","{""elementary_mathematics"":[""40/50"",""31/50"",""7/8""],""high_school_mathematics"":[""27/50"",""23/51"",""3 / 5""],""college_mathematics"":[""22/52"",""26/51"",""2/6""]}","{""elementary_mathematics"":false,""high_school_mathematics"":false,""college_mathematics"":false}","You should attempt this problem by yourself","null","null","null","null","true",""
"image-keyboard-response","28","797937","0.0-4.0-2.7","ehgqn2t5yarktcd","67340dae06b44d7b77b79406","67b62c430b9240ccd8986e70","67b62f9e3784f91bcde2b1dd","1","null","","","null","","","Identify a solution for the equation x + 2.7 = 8.4 from the given numbers.","[""11.1"",""5.7"",""3.7"",""22.68""]","B","B","modiste","","B","84","algLinUCB_0.9","diff-topics","elementary_mathematics","The following are multiple choice questions about high_school_mathematics.
Colton and his dad bought a gallon of paint that cost $13. They also bought 2 brushes that cost $9 each. What was the total cost, not including tax, of the brushes and the paint they bought?
(A) $22, (B) $24, (C) $31, (D) $35
Answer: C
Solve for y. y – 2 + 3y = 10
(A) 2, (B) 3, (C) 4, (D) 5
Answer: B
Solve 3 over 2 * w = 66.
(A) 33, (B) 44, (C) 88, (D) 99
Answer: B
Write 5.875 as a mixed number or fraction in simplest form.
(A) 5 and 8 over 9, (B) 5 and 7 over 8, (C) 7 over 8, (D) 5 and 87 over 105
Answer: B
Solve the equation 124 = m + 34.
(A) 158, (B) 90, (C) 88, (D) 4,216
Answer: B
Zelma buys p pounds of bananas for 40 cents per pound. She pays the clerk with a twenty-dollar bill. The clerk subtracts the total cost of the bananas from the twenty-dollar bill to determine the amount of change to give Zelma. Which expression represents the amount of change Zelma should receive?
(A) p - 20, (B) 20 - 40p, (C) 20 - 0.40p, (D) 0.40p - 20
Answer: C
Please answer the following question with just the correct option (A, B, C, or D) without any explanation or additional text.
Identify a solution for the equation x + 2.7 = 8.4 from the given numbers.
(A) '11.1', (B) '5.7', (C) '3.7', (D) '22.68'
Answer:","","","","","","","","","","","","","","","","","","","","","","feedback_imgs/Correct.png"
"call-function","29","797937","0.0-4.0-0.8","ehgqn2t5yarktcd","67340dae06b44d7b77b79406","67b62c430b9240ccd8986e70","67b62f9e3784f91bcde2b1dd","1","","","","","","defer","Carlos Montado was born on Saturday, November 9, 2002. On what day of the week will Carlos be 706 days old? (Spell out the entire day of the week.)","[""Friday"",""Thursday"",""Wednesday"",""Tuesday""]","A","A","modiste","","A","69","algLinUCB_0.9","diff-topics","high_school_mathematics","The following are multiple choice questions about high_school_mathematics.
Colton and his dad bought a gallon of paint that cost $13. They also bought 2 brushes that cost $9 each. What was the total cost, not including tax, of the brushes and the paint they bought?
(A) $22, (B) $24, (C) $31, (D) $35
Answer: C
Solve for y. y – 2 + 3y = 10
(A) 2, (B) 3, (C) 4, (D) 5
Answer: B
Solve 3 over 2 * w = 66.
(A) 33, (B) 44, (C) 88, (D) 99
Answer: B
Write 5.875 as a mixed number or fraction in simplest form.
(A) 5 and 8 over 9, (B) 5 and 7 over 8, (C) 7 over 8, (D) 5 and 87 over 105
Answer: B
Solve the equation 124 = m + 34.
(A) 158, (B) 90, (C) 88, (D) 4,216
Answer: B
Zelma buys p pounds of bananas for 40 cents per pound. She pays the clerk with a twenty-dollar bill. The clerk subtracts the total cost of the bananas from the twenty-dollar bill to determine the amount of change to give Zelma. Which expression represents the amount of change Zelma should receive?
(A) p - 20, (B) 20 - 40p, (C) 20 - 0.40p, (D) 0.40p - 20
Answer: C
Please answer the following question with just the correct option (A, B, C, or D) without any explanation or additional text.
Carlos Montado was born on Saturday, November 9, 2002. On what day of the week will Carlos be 706 days old? (Spell out the entire day of the week.)
(A) 'Friday', (B) 'Thursday', (C) 'Wednesday', (D) 'Tuesday'
Answer:","","","","","","","","","","","","","","","","","","","","","",""
"survey-html-form","30","872374","0.0-4.0-1.8","ehgqn2t5yarktcd","67340dae06b44d7b77b79406","67b62c430b9240ccd8986e70","67b62f9e3784f91bcde2b1dd","1","74434.80000001192","","","{""mcAnswer"":""B""}","","","Carlos Montado was born on Saturday, November 9, 2002. On what day of the week will Carlos be 706 days old? (Spell out the entire day of the week.)","[""Friday"",""Thursday"",""Wednesday"",""Tuesday""]","A","A","modiste","","A","69","algLinUCB_0.9","diff-topics","high_school_mathematics","The following are multiple choice questions about high_school_mathematics.
Colton and his dad bought a gallon of paint that cost $13. They also bought 2 brushes that cost $9 each. What was the total cost, not including tax, of the brushes and the paint they bought?
(A) $22, (B) $24, (C) $31, (D) $35
Answer: C
Solve for y. y – 2 + 3y = 10
(A) 2, (B) 3, (C) 4, (D) 5
Answer: B
Solve 3 over 2 * w = 66.
(A) 33, (B) 44, (C) 88, (D) 99
Answer: B
Write 5.875 as a mixed number or fraction in simplest form.
(A) 5 and 8 over 9, (B) 5 and 7 over 8, (C) 7 over 8, (D) 5 and 87 over 105
Answer: B
Solve the equation 124 = m + 34.
(A) 158, (B) 90, (C) 88, (D) 4,216
Answer: B
Zelma buys p pounds of bananas for 40 cents per pound. She pays the clerk with a twenty-dollar bill. The clerk subtracts the total cost of the bananas from the twenty-dollar bill to determine the amount of change to give Zelma. Which expression represents the amount of change Zelma should receive?
(A) p - 20, (B) 20 - 40p, (C) 20 - 0.40p, (D) 0.40p - 20
Answer: C
Please answer the following question with just the correct option (A, B, C, or D) without any explanation or additional text.
Carlos Montado was born on Saturday, November 9, 2002. On what day of the week will Carlos be 706 days old? (Spell out the entire day of the week.)
(A) 'Friday', (B) 'Thursday', (C) 'Wednesday', (D) 'Tuesday'
Answer:","","","","","","","","","","","","","","","","","","","","","",""
"","","","","","","","","","","","","","","","","","","","","","","","","","","","B","","","","","","","","","","","","","","","","","","","","",""
"","","","","","","","","","","","","","","","","","","","","","","","","","","","","false","120","-1","A","false","true","defer","[]","false","0","false","0","{""elementary_mathematics"":[""40/50"",""31/50"",""7/8""],""high_school_mathematics"":[""27/50"",""23/51"",""3/6""],""college_mathematics"":[""22/52"",""26/51"",""2/6""]}","{""elementary_mathematics"":false,""high_school_mathematics"":true,""college_mathematics"":false}","You should attempt this problem by yourself","null","null","null","null","true",""
"image-keyboard-response","31","873880","0.0-4.0-2.8","ehgqn2t5yarktcd","67340dae06b44d7b77b79406","67b62c430b9240ccd8986e70","67b62f9e3784f91bcde2b1dd","1","null","","","null","","","Carlos Montado was born on Saturday, November 9, 2002. On what day of the week will Carlos be 706 days old? (Spell out the entire day of the week.)","[""Friday"",""Thursday"",""Wednesday"",""Tuesday""]","A","A","modiste","","A","69","algLinUCB_0.9","diff-topics","high_school_mathematics","The following are multiple choice questions about high_school_mathematics.
Colton and his dad bought a gallon of paint that cost $13. They also bought 2 brushes that cost $9 each. What was the total cost, not including tax, of the brushes and the paint they bought?
(A) $22, (B) $24, (C) $31, (D) $35
Answer: C
Solve for y. y – 2 + 3y = 10
(A) 2, (B) 3, (C) 4, (D) 5
Answer: B
Solve 3 over 2 * w = 66.
(A) 33, (B) 44, (C) 88, (D) 99
Answer: B
Write 5.875 as a mixed number or fraction in simplest form.
(A) 5 and 8 over 9, (B) 5 and 7 over 8, (C) 7 over 8, (D) 5 and 87 over 105
Answer: B
Solve the equation 124 = m + 34.
(A) 158, (B) 90, (C) 88, (D) 4,216
Answer: B
Zelma buys p pounds of bananas for 40 cents per pound. She pays the clerk with a twenty-dollar bill. The clerk subtracts the total cost of the bananas from the twenty-dollar bill to determine the amount of change to give Zelma. Which expression represents the amount of change Zelma should receive?
(A) p - 20, (B) 20 - 40p, (C) 20 - 0.40p, (D) 0.40p - 20
Answer: C
Please answer the following question with just the correct option (A, B, C, or D) without any explanation or additional text.
Carlos Montado was born on Saturday, November 9, 2002. On what day of the week will Carlos be 706 days old? (Spell out the entire day of the week.)
(A) 'Friday', (B) 'Thursday', (C) 'Wednesday', (D) 'Tuesday'
Answer:","","","","","","","","","","","","","","","","","","","","","","feedback_imgs/Incorrect.png"
"call-function","32","873881","0.0-4.0-0.9","ehgqn2t5yarktcd","67340dae06b44d7b77b79406","67b62c430b9240ccd8986e70","67b62f9e3784f91bcde2b1dd","1","","","","","","defer","Which of the following is an equation of the line tangent to the graph of y = x + e^x at x = 0 ?","[""y = 2x + 1"",""y = 2x"",""y = x + 2"",""y = x + 1""]","D","A","modiste","","A","116","algLinUCB_0.9","diff-topics","college_mathematics","The following are multiple choice questions about high_school_mathematics.
Colton and his dad bought a gallon of paint that cost $13. They also bought 2 brushes that cost $9 each. What was the total cost, not including tax, of the brushes and the paint they bought?
(A) $22, (B) $24, (C) $31, (D) $35
Answer: C
Solve for y. y – 2 + 3y = 10
(A) 2, (B) 3, (C) 4, (D) 5
Answer: B
Solve 3 over 2 * w = 66.
(A) 33, (B) 44, (C) 88, (D) 99
Answer: B
Write 5.875 as a mixed number or fraction in simplest form.
(A) 5 and 8 over 9, (B) 5 and 7 over 8, (C) 7 over 8, (D) 5 and 87 over 105
Answer: B
Solve the equation 124 = m + 34.
(A) 158, (B) 90, (C) 88, (D) 4,216
Answer: B
Zelma buys p pounds of bananas for 40 cents per pound. She pays the clerk with a twenty-dollar bill. The clerk subtracts the total cost of the bananas from the twenty-dollar bill to determine the amount of change to give Zelma. Which expression represents the amount of change Zelma should receive?
(A) p - 20, (B) 20 - 40p, (C) 20 - 0.40p, (D) 0.40p - 20
Answer: C
Please answer the following question with just the correct option (A, B, C, or D) without any explanation or additional text.
Which of the following is an equation of the line tangent to the graph of y = x + e^x at x = 0 ?
(A) 'y = 2x + 1', (B) 'y = 2x', (C) 'y = x + 2', (D) 'y = x + 1'
Answer:","","","","","","","","","","","","true","2","","","","","","","","",""
"survey-html-form","33","894356","0.0-4.0-1.9","ehgqn2t5yarktcd","67340dae06b44d7b77b79406","67b62c430b9240ccd8986e70","67b62f9e3784f91bcde2b1dd","1","20473","","","{""mcAnswer"":""D""}","","","Which of the following is an equation of the line tangent to the graph of y = x + e^x at x = 0 ?","[""y = 2x + 1"",""y = 2x"",""y = x + 2"",""y = x + 1""]","D","A","modiste","","A","116","algLinUCB_0.9","diff-topics","college_mathematics","The following are multiple choice questions about high_school_mathematics.
Colton and his dad bought a gallon of paint that cost $13. They also bought 2 brushes that cost $9 each. What was the total cost, not including tax, of the brushes and the paint they bought?
(A) $22, (B) $24, (C) $31, (D) $35
Answer: C
Solve for y. y – 2 + 3y = 10
(A) 2, (B) 3, (C) 4, (D) 5
Answer: B
Solve 3 over 2 * w = 66.
(A) 33, (B) 44, (C) 88, (D) 99
Answer: B
Write 5.875 as a mixed number or fraction in simplest form.
(A) 5 and 8 over 9, (B) 5 and 7 over 8, (C) 7 over 8, (D) 5 and 87 over 105
Answer: B
Solve the equation 124 = m + 34.
(A) 158, (B) 90, (C) 88, (D) 4,216
Answer: B
Zelma buys p pounds of bananas for 40 cents per pound. She pays the clerk with a twenty-dollar bill. The clerk subtracts the total cost of the bananas from the twenty-dollar bill to determine the amount of change to give Zelma. Which expression represents the amount of change Zelma should receive?
(A) p - 20, (B) 20 - 40p, (C) 20 - 0.40p, (D) 0.40p - 20
Answer: C
Please answer the following question with just the correct option (A, B, C, or D) without any explanation or additional text.
Which of the following is an equation of the line tangent to the graph of y = x + e^x at x = 0 ?
(A) 'y = 2x + 1', (B) 'y = 2x', (C) 'y = x + 2', (D) 'y = x + 1'
Answer:","","","","","","","","","","","","","","","","","","","","","",""
"","","","","","","","","","","","","","","","","","","","","","","","","","","","D","","","","","","","","","","","","","","","","","","","","",""
"","","","","","","","","","","","","","","","","","","","","","","","","","","","","false","117","-1","D","false","false","defer","[]","false","0","true","2","{""elementary_mathematics"":[""40/50"",""31/50"",""7/8""],""high_school_mathematics"":[""27/50"",""23/51"",""3/6""],""college_mathematics"":[""22/52"",""26/52"",""2/6""]}","{""elementary_mathematics"":false,""high_school_mathematics"":true,""college_mathematics"":false}","You should outsource this problem to the AI agent","false","null","true","null","null",""
"image-keyboard-response","34","895861","0.0-4.0-2.9","ehgqn2t5yarktcd","67340dae06b44d7b77b79406","67b62c430b9240ccd8986e70","67b62f9e3784f91bcde2b1dd","1","null","","","null","","","Which of the following is an equation of the line tangent to the graph of y = x + e^x at x = 0 ?","[""y = 2x + 1"",""y = 2x"",""y = x + 2"",""y = x + 1""]","D","A","modiste","","A","116","algLinUCB_0.9","diff-topics","college_mathematics","The following are multiple choice questions about high_school_mathematics.
Colton and his dad bought a gallon of paint that cost $13. They also bought 2 brushes that cost $9 each. What was the total cost, not including tax, of the brushes and the paint they bought?
(A) $22, (B) $24, (C) $31, (D) $35
Answer: C
Solve for y. y – 2 + 3y = 10
(A) 2, (B) 3, (C) 4, (D) 5
Answer: B
Solve 3 over 2 * w = 66.
(A) 33, (B) 44, (C) 88, (D) 99
Answer: B
Write 5.875 as a mixed number or fraction in simplest form.
(A) 5 and 8 over 9, (B) 5 and 7 over 8, (C) 7 over 8, (D) 5 and 87 over 105
Answer: B
Solve the equation 124 = m + 34.
(A) 158, (B) 90, (C) 88, (D) 4,216
Answer: B
Zelma buys p pounds of bananas for 40 cents per pound. She pays the clerk with a twenty-dollar bill. The clerk subtracts the total cost of the bananas from the twenty-dollar bill to determine the amount of change to give Zelma. Which expression represents the amount of change Zelma should receive?
(A) p - 20, (B) 20 - 40p, (C) 20 - 0.40p, (D) 0.40p - 20
Answer: C
Please answer the following question with just the correct option (A, B, C, or D) without any explanation or additional text.
Which of the following is an equation of the line tangent to the graph of y = x + e^x at x = 0 ?
(A) 'y = 2x + 1', (B) 'y = 2x', (C) 'y = x + 2', (D) 'y = x + 1'
Answer:","","","","","","","","","","","","","","","","","","","","","","feedback_imgs/Incorrect.png"
"call-function","35","895861","0.0-4.0-0.10","ehgqn2t5yarktcd","67340dae06b44d7b77b79406","67b62c430b9240ccd8986e70","67b62f9e3784f91bcde2b1dd","1","","","","","","defer","Rosa has a goal of running a total of 100 miles this month. Each day that she ran, she ran 5 miles. Which expression could Rosa use to determine how many miles she has left to run after running for d days?","[""100 — 5d"",""5d+ 100"",""100 / 5d"",""5d""]","A","A","modiste","","A","88","algLinUCB_0.9","diff-topics","elementary_mathematics","The following are multiple choice questions about high_school_mathematics.
Colton and his dad bought a gallon of paint that cost $13. They also bought 2 brushes that cost $9 each. What was the total cost, not including tax, of the brushes and the paint they bought?
(A) $22, (B) $24, (C) $31, (D) $35
Answer: C
Solve for y. y – 2 + 3y = 10
(A) 2, (B) 3, (C) 4, (D) 5
Answer: B
Solve 3 over 2 * w = 66.
(A) 33, (B) 44, (C) 88, (D) 99
Answer: B
Write 5.875 as a mixed number or fraction in simplest form.
(A) 5 and 8 over 9, (B) 5 and 7 over 8, (C) 7 over 8, (D) 5 and 87 over 105
Answer: B
Solve the equation 124 = m + 34.
(A) 158, (B) 90, (C) 88, (D) 4,216
Answer: B
Zelma buys p pounds of bananas for 40 cents per pound. She pays the clerk with a twenty-dollar bill. The clerk subtracts the total cost of the bananas from the twenty-dollar bill to determine the amount of change to give Zelma. Which expression represents the amount of change Zelma should receive?
(A) p - 20, (B) 20 - 40p, (C) 20 - 0.40p, (D) 0.40p - 20
Answer: C
Please answer the following question with just the correct option (A, B, C, or D) without any explanation or additional text.
Rosa has a goal of running a total of 100 miles this month. Each day that she ran, she ran 5 miles. Which expression could Rosa use to determine how many miles she has left to run after running for d days?
(A) '100 — 5d', (B) '5d+ 100', (C) '100 / 5d', (D) '5d'
Answer:","","","","","","","","","","","","","","","","","","","","","",""
"survey-html-form","36","913239","0.0-4.0-1.10","ehgqn2t5yarktcd","67340dae06b44d7b77b79406","67b62c430b9240ccd8986e70","67b62f9e3784f91bcde2b1dd","1","17376","","","{""mcAnswer"":""A""}","","","Rosa has a goal of running a total of 100 miles this month. Each day that she ran, she ran 5 miles. Which expression could Rosa use to determine how many miles she has left to run after running for d days?","[""100 — 5d"",""5d+ 100"",""100 / 5d"",""5d""]","A","A","modiste","","A","88","algLinUCB_0.9","diff-topics","elementary_mathematics","The following are multiple choice questions about high_school_mathematics.
Colton and his dad bought a gallon of paint that cost $13. They also bought 2 brushes that cost $9 each. What was the total cost, not including tax, of the brushes and the paint they bought?
(A) $22, (B) $24, (C) $31, (D) $35
Answer: C
Solve for y. y – 2 + 3y = 10
(A) 2, (B) 3, (C) 4, (D) 5
Answer: B
Solve 3 over 2 * w = 66.
(A) 33, (B) 44, (C) 88, (D) 99
Answer: B
Write 5.875 as a mixed number or fraction in simplest form.
(A) 5 and 8 over 9, (B) 5 and 7 over 8, (C) 7 over 8, (D) 5 and 87 over 105
Answer: B
Solve the equation 124 = m + 34.
(A) 158, (B) 90, (C) 88, (D) 4,216
Answer: B
Zelma buys p pounds of bananas for 40 cents per pound. She pays the clerk with a twenty-dollar bill. The clerk subtracts the total cost of the bananas from the twenty-dollar bill to determine the amount of change to give Zelma. Which expression represents the amount of change Zelma should receive?
(A) p - 20, (B) 20 - 40p, (C) 20 - 0.40p, (D) 0.40p - 20
Answer: C
Please answer the following question with just the correct option (A, B, C, or D) without any explanation or additional text.
Rosa has a goal of running a total of 100 miles this month. Each day that she ran, she ran 5 miles. Which expression could Rosa use to determine how many miles she has left to run after running for d days?
(A) '100 — 5d', (B) '5d+ 100', (C) '100 / 5d', (D) '5d'
Answer:","","","","","","","","","","","","","","","","","","","","","",""
"","","","","","","","","","","","","","","","","","","","","","","","","","","","A","","","","","","","","","","","","","","","","","","","","",""
"","","","","","","","","","","","","","","","","","","","","","","","","","","","","false","127","-1","A","true","true","defer","[]","false","0","false","0","{""elementary_mathematics"":[""40/50"",""31/50"",""8/9""],""high_school_mathematics"":[""27/50"",""23/51"",""3/6""],""college_mathematics"":[""22/52"",""26/52"",""2/6""]}","{""elementary_mathematics"":false,""high_school_mathematics"":true,""college_mathematics"":false}","You should attempt this problem by yourself","null","null","null","null","true",""
"image-keyboard-response","37","914744","0.0-4.0-2.10","ehgqn2t5yarktcd","67340dae06b44d7b77b79406","67b62c430b9240ccd8986e70","67b62f9e3784f91bcde2b1dd","1","null","","","null","","","Rosa has a goal of running a total of 100 miles this month. Each day that she ran, she ran 5 miles. Which expression could Rosa use to determine how many miles she has left to run after running for d days?","[""100 — 5d"",""5d+ 100"",""100 / 5d"",""5d""]","A","A","modiste","","A","88","algLinUCB_0.9","diff-topics","elementary_mathematics","The following are multiple choice questions about high_school_mathematics.
Colton and his dad bought a gallon of paint that cost $13. They also bought 2 brushes that cost $9 each. What was the total cost, not including tax, of the brushes and the paint they bought?
(A) $22, (B) $24, (C) $31, (D) $35
Answer: C
Solve for y. y – 2 + 3y = 10
(A) 2, (B) 3, (C) 4, (D) 5
Answer: B
Solve 3 over 2 * w = 66.
(A) 33, (B) 44, (C) 88, (D) 99
Answer: B
Write 5.875 as a mixed number or fraction in simplest form.
(A) 5 and 8 over 9, (B) 5 and 7 over 8, (C) 7 over 8, (D) 5 and 87 over 105
Answer: B
Solve the equation 124 = m + 34.
(A) 158, (B) 90, (C) 88, (D) 4,216
Answer: B
Zelma buys p pounds of bananas for 40 cents per pound. She pays the clerk with a twenty-dollar bill. The clerk subtracts the total cost of the bananas from the twenty-dollar bill to determine the amount of change to give Zelma. Which expression represents the amount of change Zelma should receive?
(A) p - 20, (B) 20 - 40p, (C) 20 - 0.40p, (D) 0.40p - 20
Answer: C
Please answer the following question with just the correct option (A, B, C, or D) without any explanation or additional text.
Rosa has a goal of running a total of 100 miles this month. Each day that she ran, she ran 5 miles. Which expression could Rosa use to determine how many miles she has left to run after running for d days?
(A) '100 — 5d', (B) '5d+ 100', (C) '100 / 5d', (D) '5d'
Answer:","","","","","","","","","","","","","","","","","","","","","","feedback_imgs/Correct.png"
"call-function","38","914744","0.0-4.0-0.11","ehgqn2t5yarktcd","67340dae06b44d7b77b79406","67b62c430b9240ccd8986e70","67b62f9e3784f91bcde2b1dd","1","","","","","","defer","Andrew wrote the number 186,425 on the board. In which number is the value of the digit 6 exactly 10 times the value of the digit 6 in the number Andrew wrote?","[""681,452"",""462,017"",""246,412"",""125,655""]","A","A","modiste","","B","90","algLinUCB_0.9","diff-topics","elementary_mathematics","The following are multiple choice questions about high_school_mathematics.
Colton and his dad bought a gallon of paint that cost $13. They also bought 2 brushes that cost $9 each. What was the total cost, not including tax, of the brushes and the paint they bought?
(A) $22, (B) $24, (C) $31, (D) $35
Answer: C
Solve for y. y – 2 + 3y = 10
(A) 2, (B) 3, (C) 4, (D) 5
Answer: B
Solve 3 over 2 * w = 66.
(A) 33, (B) 44, (C) 88, (D) 99
Answer: B
Write 5.875 as a mixed number or fraction in simplest form.
(A) 5 and 8 over 9, (B) 5 and 7 over 8, (C) 7 over 8, (D) 5 and 87 over 105
Answer: B
Solve the equation 124 = m + 34.
(A) 158, (B) 90, (C) 88, (D) 4,216
Answer: B
Zelma buys p pounds of bananas for 40 cents per pound. She pays the clerk with a twenty-dollar bill. The clerk subtracts the total cost of the bananas from the twenty-dollar bill to determine the amount of change to give Zelma. Which expression represents the amount of change Zelma should receive?
(A) p - 20, (B) 20 - 40p, (C) 20 - 0.40p, (D) 0.40p - 20
Answer: C
Please answer the following question with just the correct option (A, B, C, or D) without any explanation or additional text.
Andrew wrote the number 186,425 on the board. In which number is the value of the digit 6 exactly 10 times the value of the digit 6 in the number Andrew wrote?
(A) '681,452', (B) '462,017', (C) '246,412', (D) '125,655'
Answer:","","","","","","","","","","true","2","","","","","","","","","","",""
"survey-html-form","39","1022839","0.0-4.0-1.11","ehgqn2t5yarktcd","67340dae06b44d7b77b79406","67b62c430b9240ccd8986e70","67b62f9e3784f91bcde2b1dd","1","108092.19999998808","","","{""mcAnswer"":""A""}","","","Andrew wrote the number 186,425 on the board. In which number is the value of the digit 6 exactly 10 times the value of the digit 6 in the number Andrew wrote?","[""681,452"",""462,017"",""246,412"",""125,655""]","A","A","modiste","","B","90","algLinUCB_0.9","diff-topics","elementary_mathematics","The following are multiple choice questions about high_school_mathematics.
Colton and his dad bought a gallon of paint that cost $13. They also bought 2 brushes that cost $9 each. What was the total cost, not including tax, of the brushes and the paint they bought?
(A) $22, (B) $24, (C) $31, (D) $35
Answer: C
Solve for y. y – 2 + 3y = 10
(A) 2, (B) 3, (C) 4, (D) 5
Answer: B
Solve 3 over 2 * w = 66.
(A) 33, (B) 44, (C) 88, (D) 99
Answer: B
Write 5.875 as a mixed number or fraction in simplest form.
(A) 5 and 8 over 9, (B) 5 and 7 over 8, (C) 7 over 8, (D) 5 and 87 over 105
Answer: B
Solve the equation 124 = m + 34.
(A) 158, (B) 90, (C) 88, (D) 4,216
Answer: B
Zelma buys p pounds of bananas for 40 cents per pound. She pays the clerk with a twenty-dollar bill. The clerk subtracts the total cost of the bananas from the twenty-dollar bill to determine the amount of change to give Zelma. Which expression represents the amount of change Zelma should receive?
(A) p - 20, (B) 20 - 40p, (C) 20 - 0.40p, (D) 0.40p - 20
Answer: C
Please answer the following question with just the correct option (A, B, C, or D) without any explanation or additional text.
Andrew wrote the number 186,425 on the board. In which number is the value of the digit 6 exactly 10 times the value of the digit 6 in the number Andrew wrote?
(A) '681,452', (B) '462,017', (C) '246,412', (D) '125,655'
Answer:","","","","","","","","","","","","","","","","","","","","","",""
"","","","","","","","","","","","","","","","","","","","","","","","","","","","A","","","","","","","","","","","","","","","","","","","","",""
"","","","","","","","","","","","","","","","","","","","","","","","","","","","","false","120","-1","A","false","false","defer","[]","true","2","false","0","{""elementary_mathematics"":[""40/51"",""31/50"",""8/9""],""high_school_mathematics"":[""27/50"",""23/51"",""3/6""],""college_mathematics"":[""22/52"",""26/52"",""2/6""]}","{""elementary_mathematics"":false,""high_school_mathematics"":true,""college_mathematics"":false}","You should attempt this problem by yourself","null","false","null","null","false",""
"image-keyboard-response","40","1024357","0.0-4.0-2.11","ehgqn2t5yarktcd","67340dae06b44d7b77b79406","67b62c430b9240ccd8986e70","67b62f9e3784f91bcde2b1dd","1","null","","","null","","","Andrew wrote the number 186,425 on the board. In which number is the value of the digit 6 exactly 10 times the value of the digit 6 in the number Andrew wrote?","[""681,452"",""462,017"",""246,412"",""125,655""]","A","A","modiste","","B","90","algLinUCB_0.9","diff-topics","elementary_mathematics","The following are multiple choice questions about high_school_mathematics.
Colton and his dad bought a gallon of paint that cost $13. They also bought 2 brushes that cost $9 each. What was the total cost, not including tax, of the brushes and the paint they bought?
(A) $22, (B) $24, (C) $31, (D) $35
Answer: C
Solve for y. y – 2 + 3y = 10
(A) 2, (B) 3, (C) 4, (D) 5
Answer: B
Solve 3 over 2 * w = 66.
(A) 33, (B) 44, (C) 88, (D) 99
Answer: B
Write 5.875 as a mixed number or fraction in simplest form.
(A) 5 and 8 over 9, (B) 5 and 7 over 8, (C) 7 over 8, (D) 5 and 87 over 105
Answer: B
Solve the equation 124 = m + 34.
(A) 158, (B) 90, (C) 88, (D) 4,216
Answer: B
Zelma buys p pounds of bananas for 40 cents per pound. She pays the clerk with a twenty-dollar bill. The clerk subtracts the total cost of the bananas from the twenty-dollar bill to determine the amount of change to give Zelma. Which expression represents the amount of change Zelma should receive?
(A) p - 20, (B) 20 - 40p, (C) 20 - 0.40p, (D) 0.40p - 20
Answer: C
Please answer the following question with just the correct option (A, B, C, or D) without any explanation or additional text.
Andrew wrote the number 186,425 on the board. In which number is the value of the digit 6 exactly 10 times the value of the digit 6 in the number Andrew wrote?
(A) '681,452', (B) '462,017', (C) '246,412', (D) '125,655'
Answer:","","","","","","","","","","","","","","","","","","","","","","feedback_imgs/Incorrect.png"
"call-function","41","1024357","0.0-4.0-0.12","ehgqn2t5yarktcd","67340dae06b44d7b77b79406","67b62c430b9240ccd8986e70","67b62f9e3784f91bcde2b1dd","1","","","","","","defer","How many ways are there to choose 3 cards from a standard deck of 52 cards, if all three cards must be of different suits? (Assume that the order of the cards does not matter.)","[""8788"",""2"",""2197"",""21""]","C","B","modiste","","A","78","algLinUCB_0.9","diff-topics","high_school_mathematics","The following are multiple choice questions about high_school_mathematics.
Colton and his dad bought a gallon of paint that cost $13. They also bought 2 brushes that cost $9 each. What was the total cost, not including tax, of the brushes and the paint they bought?
(A) $22, (B) $24, (C) $31, (D) $35
Answer: C
Solve for y. y – 2 + 3y = 10
(A) 2, (B) 3, (C) 4, (D) 5
Answer: B
Solve 3 over 2 * w = 66.
(A) 33, (B) 44, (C) 88, (D) 99
Answer: B
Write 5.875 as a mixed number or fraction in simplest form.
(A) 5 and 8 over 9, (B) 5 and 7 over 8, (C) 7 over 8, (D) 5 and 87 over 105
Answer: B
Solve the equation 124 = m + 34.
(A) 158, (B) 90, (C) 88, (D) 4,216
Answer: B
Zelma buys p pounds of bananas for 40 cents per pound. She pays the clerk with a twenty-dollar bill. The clerk subtracts the total cost of the bananas from the twenty-dollar bill to determine the amount of change to give Zelma. Which expression represents the amount of change Zelma should receive?
(A) p - 20, (B) 20 - 40p, (C) 20 - 0.40p, (D) 0.40p - 20
Answer: C
Please answer the following question with just the correct option (A, B, C, or D) without any explanation or additional text.
How many ways are there to choose 3 cards from a standard deck of 52 cards, if all three cards must be of different suits? (Assume that the order of the cards does not matter.)
(A) '8788', (B) '2', (C) '2197', (D) '21'
Answer:","","","","","","","","","","true","2","","","","","","","","","","",""
"survey-html-form","42","1124642","0.0-4.0-1.12","ehgqn2t5yarktcd","67340dae06b44d7b77b79406","67b62c430b9240ccd8986e70","67b62f9e3784f91bcde2b1dd","1","100282.39999997616","","","{""mcAnswer"":""B""}","","","How many ways are there to choose 3 cards from a standard deck of 52 cards, if all three cards must be of different suits? (Assume that the order of the cards does not matter.)","[""8788"",""2"",""2197"",""21""]","C","B","modiste","","A","78","algLinUCB_0.9","diff-topics","high_school_mathematics","The following are multiple choice questions about high_school_mathematics.
Colton and his dad bought a gallon of paint that cost $13. They also bought 2 brushes that cost $9 each. What was the total cost, not including tax, of the brushes and the paint they bought?
(A) $22, (B) $24, (C) $31, (D) $35
Answer: C
Solve for y. y – 2 + 3y = 10
(A) 2, (B) 3, (C) 4, (D) 5
Answer: B
Solve 3 over 2 * w = 66.
(A) 33, (B) 44, (C) 88, (D) 99
Answer: B
Write 5.875 as a mixed number or fraction in simplest form.
(A) 5 and 8 over 9, (B) 5 and 7 over 8, (C) 7 over 8, (D) 5 and 87 over 105
Answer: B
Solve the equation 124 = m + 34.
(A) 158, (B) 90, (C) 88, (D) 4,216
Answer: B
Zelma buys p pounds of bananas for 40 cents per pound. She pays the clerk with a twenty-dollar bill. The clerk subtracts the total cost of the bananas from the twenty-dollar bill to determine the amount of change to give Zelma. Which expression represents the amount of change Zelma should receive?
(A) p - 20, (B) 20 - 40p, (C) 20 - 0.40p, (D) 0.40p - 20
Answer: C
Please answer the following question with just the correct option (A, B, C, or D) without any explanation or additional text.
How many ways are there to choose 3 cards from a standard deck of 52 cards, if all three cards must be of different suits? (Assume that the order of the cards does not matter.)
(A) '8788', (B) '2', (C) '2197', (D) '21'
Answer:","","","","","","","","","","","","","","","","","","","","","",""
"","","","","","","","","","","","","","","","","","","","","","","","","","","","B","","","","","","","","","","","","","","","","","","","","",""
"","","","","","","","","","","","","","","","","","","","","","","","","","","","","false","113","-1","C","false","false","defer","[]","true","2","false","0","{""elementary_mathematics"":[""40/51"",""31/50"",""8/9""],""high_school_mathematics"":[""27/51"",""23/51"",""3/6""],""college_mathematics"":[""22/52"",""26/52"",""2/6""]}","{""elementary_mathematics"":false,""high_school_mathematics"":false,""college_mathematics"":false}","You were wrong by yourself on high_school_mathematics last time. You should outsource this problem to a human agent","null","false","null","true","null",""
"image-keyboard-response","43","1126146","0.0-4.0-2.12","ehgqn2t5yarktcd","67340dae06b44d7b77b79406","67b62c430b9240ccd8986e70","67b62f9e3784f91bcde2b1dd","1","null","","","null","","","How many ways are there to choose 3 cards from a standard deck of 52 cards, if all three cards must be of different suits? (Assume that the order of the cards does not matter.)","[""8788"",""2"",""2197"",""21""]","C","B","modiste","","A","78","algLinUCB_0.9","diff-topics","high_school_mathematics","The following are multiple choice questions about high_school_mathematics.
Colton and his dad bought a gallon of paint that cost $13. They also bought 2 brushes that cost $9 each. What was the total cost, not including tax, of the brushes and the paint they bought?
(A) $22, (B) $24, (C) $31, (D) $35
Answer: C
Solve for y. y – 2 + 3y = 10
(A) 2, (B) 3, (C) 4, (D) 5
Answer: B
Solve 3 over 2 * w = 66.
(A) 33, (B) 44, (C) 88, (D) 99
Answer: B
Write 5.875 as a mixed number or fraction in simplest form.
(A) 5 and 8 over 9, (B) 5 and 7 over 8, (C) 7 over 8, (D) 5 and 87 over 105
Answer: B
Solve the equation 124 = m + 34.
(A) 158, (B) 90, (C) 88, (D) 4,216
Answer: B
Zelma buys p pounds of bananas for 40 cents per pound. She pays the clerk with a twenty-dollar bill. The clerk subtracts the total cost of the bananas from the twenty-dollar bill to determine the amount of change to give Zelma. Which expression represents the amount of change Zelma should receive?
(A) p - 20, (B) 20 - 40p, (C) 20 - 0.40p, (D) 0.40p - 20
Answer: C
Please answer the following question with just the correct option (A, B, C, or D) without any explanation or additional text.
How many ways are there to choose 3 cards from a standard deck of 52 cards, if all three cards must be of different suits? (Assume that the order of the cards does not matter.)
(A) '8788', (B) '2', (C) '2197', (D) '21'
Answer:","","","","","","","","","","","","","","","","","","","","","","feedback_imgs/Incorrect.png"
"call-function","44","1126147","0.0-4.0-0.13","ehgqn2t5yarktcd","67340dae06b44d7b77b79406","67b62c430b9240ccd8986e70","67b62f9e3784f91bcde2b1dd","1","","","","","","defer","Write 8 and 2 over 4 as an improper fraction in simplest form.","[""17 over 2"",""34 over 4"",""17 over 4"",""19 over 2""]","B","A","modiste","","A","92","algLinUCB_0.9","diff-topics","elementary_mathematics","The following are multiple choice questions about high_school_mathematics.
Colton and his dad bought a gallon of paint that cost $13. They also bought 2 brushes that cost $9 each. What was the total cost, not including tax, of the brushes and the paint they bought?
(A) $22, (B) $24, (C) $31, (D) $35
Answer: C
Solve for y. y – 2 + 3y = 10
(A) 2, (B) 3, (C) 4, (D) 5
Answer: B
Solve 3 over 2 * w = 66.
(A) 33, (B) 44, (C) 88, (D) 99
Answer: B
Write 5.875 as a mixed number or fraction in simplest form.
(A) 5 and 8 over 9, (B) 5 and 7 over 8, (C) 7 over 8, (D) 5 and 87 over 105
Answer: B
Solve the equation 124 = m + 34.
(A) 158, (B) 90, (C) 88, (D) 4,216
Answer: B
Zelma buys p pounds of bananas for 40 cents per pound. She pays the clerk with a twenty-dollar bill. The clerk subtracts the total cost of the bananas from the twenty-dollar bill to determine the amount of change to give Zelma. Which expression represents the amount of change Zelma should receive?
(A) p - 20, (B) 20 - 40p, (C) 20 - 0.40p, (D) 0.40p - 20
Answer: C
Please answer the following question with just the correct option (A, B, C, or D) without any explanation or additional text.
Write 8 and 2 over 4 as an improper fraction in simplest form.
(A) '17 over 2', (B) '34 over 4', (C) '17 over 4', (D) '19 over 2'
Answer:","","","","","","","","","","","","","","","","","","","","","",""
"survey-html-form","45","1189990","0.0-4.0-1.13","ehgqn2t5yarktcd","67340dae06b44d7b77b79406","67b62c430b9240ccd8986e70","67b62f9e3784f91bcde2b1dd","1","63840.60000002384","","","{""mcAnswer"":""A""}","","","Write 8 and 2 over 4 as an improper fraction in simplest form.","[""17 over 2"",""34 over 4"",""17 over 4"",""19 over 2""]","B","A","modiste","","A","92","algLinUCB_0.9","diff-topics","elementary_mathematics","The following are multiple choice questions about high_school_mathematics.
Colton and his dad bought a gallon of paint that cost $13. They also bought 2 brushes that cost $9 each. What was the total cost, not including tax, of the brushes and the paint they bought?
(A) $22, (B) $24, (C) $31, (D) $35
Answer: C
Solve for y. y – 2 + 3y = 10
(A) 2, (B) 3, (C) 4, (D) 5
Answer: B
Solve 3 over 2 * w = 66.
(A) 33, (B) 44, (C) 88, (D) 99
Answer: B
Write 5.875 as a mixed number or fraction in simplest form.
(A) 5 and 8 over 9, (B) 5 and 7 over 8, (C) 7 over 8, (D) 5 and 87 over 105
Answer: B
Solve the equation 124 = m + 34.
(A) 158, (B) 90, (C) 88, (D) 4,216
Answer: B
Zelma buys p pounds of bananas for 40 cents per pound. She pays the clerk with a twenty-dollar bill. The clerk subtracts the total cost of the bananas from the twenty-dollar bill to determine the amount of change to give Zelma. Which expression represents the amount of change Zelma should receive?
(A) p - 20, (B) 20 - 40p, (C) 20 - 0.40p, (D) 0.40p - 20
Answer: C
Please answer the following question with just the correct option (A, B, C, or D) without any explanation or additional text.
Write 8 and 2 over 4 as an improper fraction in simplest form.
(A) '17 over 2', (B) '34 over 4', (C) '17 over 4', (D) '19 over 2'
Answer:","","","","","","","","","","","","","","","","","","","","","",""
"","","","","","","","","","","","","","","","","","","","","","","","","","","","A","","","","","","","","","","","","","","","","","","","","",""
"","","","","","","","","","","","","","","","","","","","","","","","","","","","","false","123","-1","B","true","false","defer","[]","false","0","false","0","{""elementary_mathematics"":[""40/51"",""31/50"",""9/10""],""high_school_mathematics"":[""27/51"",""23/51"",""3/6""],""college_mathematics"":[""22/52"",""26/52"",""2/6""]}","{""elementary_mathematics"":false,""high_school_mathematics"":false,""college_mathematics"":false}","You should attempt this problem by yourself","null","null","null","null","true",""
"image-keyboard-response","46","1191497","0.0-4.0-2.13","ehgqn2t5yarktcd","67340dae06b44d7b77b79406","67b62c430b9240ccd8986e70","67b62f9e3784f91bcde2b1dd","1","null","","","null","","","Write 8 and 2 over 4 as an improper fraction in simplest form.","[""17 over 2"",""34 over 4"",""17 over 4"",""19 over 2""]","B","A","modiste","","A","92","algLinUCB_0.9","diff-topics","elementary_mathematics","The following are multiple choice questions about high_school_mathematics.
Colton and his dad bought a gallon of paint that cost $13. They also bought 2 brushes that cost $9 each. What was the total cost, not including tax, of the brushes and the paint they bought?
(A) $22, (B) $24, (C) $31, (D) $35
Answer: C
Solve for y. y – 2 + 3y = 10
(A) 2, (B) 3, (C) 4, (D) 5
Answer: B
Solve 3 over 2 * w = 66.
(A) 33, (B) 44, (C) 88, (D) 99
Answer: B
Write 5.875 as a mixed number or fraction in simplest form.
(A) 5 and 8 over 9, (B) 5 and 7 over 8, (C) 7 over 8, (D) 5 and 87 over 105
Answer: B
Solve the equation 124 = m + 34.
(A) 158, (B) 90, (C) 88, (D) 4,216
Answer: B
Zelma buys p pounds of bananas for 40 cents per pound. She pays the clerk with a twenty-dollar bill. The clerk subtracts the total cost of the bananas from the twenty-dollar bill to determine the amount of change to give Zelma. Which expression represents the amount of change Zelma should receive?
(A) p - 20, (B) 20 - 40p, (C) 20 - 0.40p, (D) 0.40p - 20
Answer: C
Please answer the following question with just the correct option (A, B, C, or D) without any explanation or additional text.
Write 8 and 2 over 4 as an improper fraction in simplest form.
(A) '17 over 2', (B) '34 over 4', (C) '17 over 4', (D) '19 over 2'
Answer:","","","","","","","","","","","","","","","","","","","","","","feedback_imgs/Correct.png"
"call-function","47","1191497","0.0-4.0-0.14","ehgqn2t5yarktcd","67340dae06b44d7b77b79406","67b62c430b9240ccd8986e70","67b62f9e3784f91bcde2b1dd","1","","","","","","defer","Let C be the circle with equation x^2+12y+57=-y^2-10x. If (a,b) is the center of C and r is its radius, what is the value of a+b+r?","[""-9"",""-5"",""-6"",""-57""]","B","A","modiste","","A","79","algLinUCB_0.9","diff-topics","high_school_mathematics","The following are multiple choice questions about high_school_mathematics.
Colton and his dad bought a gallon of paint that cost $13. They also bought 2 brushes that cost $9 each. What was the total cost, not including tax, of the brushes and the paint they bought?
(A) $22, (B) $24, (C) $31, (D) $35
Answer: C
Solve for y. y – 2 + 3y = 10
(A) 2, (B) 3, (C) 4, (D) 5
Answer: B
Solve 3 over 2 * w = 66.
(A) 33, (B) 44, (C) 88, (D) 99
Answer: B
Write 5.875 as a mixed number or fraction in simplest form.
(A) 5 and 8 over 9, (B) 5 and 7 over 8, (C) 7 over 8, (D) 5 and 87 over 105
Answer: B
Solve the equation 124 = m + 34.
(A) 158, (B) 90, (C) 88, (D) 4,216
Answer: B
Zelma buys p pounds of bananas for 40 cents per pound. She pays the clerk with a twenty-dollar bill. The clerk subtracts the total cost of the bananas from the twenty-dollar bill to determine the amount of change to give Zelma. Which expression represents the amount of change Zelma should receive?
(A) p - 20, (B) 20 - 40p, (C) 20 - 0.40p, (D) 0.40p - 20
Answer: C
Please answer the following question with just the correct option (A, B, C, or D) without any explanation or additional text.
Let C be the circle with equation x^2+12y+57=-y^2-10x. If (a,b) is the center of C and r is its radius, what is the value of a+b+r?
(A) '-9', (B) '-5', (C) '-6', (D) '-57'
Answer:","","","","","","","","","","","","","","","","","","","","","",""
"survey-html-form","48","1238372","0.0-4.0-1.14","ehgqn2t5yarktcd","67340dae06b44d7b77b79406","67b62c430b9240ccd8986e70","67b62f9e3784f91bcde2b1dd","1","46872.89999997616","","","{""mcAnswer"":""C""}","","","Let C be the circle with equation x^2+12y+57=-y^2-10x. If (a,b) is the center of C and r is its radius, what is the value of a+b+r?","[""-9"",""-5"",""-6"",""-57""]","B","A","modiste","","A","79","algLinUCB_0.9","diff-topics","high_school_mathematics","The following are multiple choice questions about high_school_mathematics.
Colton and his dad bought a gallon of paint that cost $13. They also bought 2 brushes that cost $9 each. What was the total cost, not including tax, of the brushes and the paint they bought?
(A) $22, (B) $24, (C) $31, (D) $35
Answer: C
Solve for y. y – 2 + 3y = 10
(A) 2, (B) 3, (C) 4, (D) 5
Answer: B
Solve 3 over 2 * w = 66.
(A) 33, (B) 44, (C) 88, (D) 99
Answer: B
Write 5.875 as a mixed number or fraction in simplest form.
(A) 5 and 8 over 9, (B) 5 and 7 over 8, (C) 7 over 8, (D) 5 and 87 over 105
Answer: B
Solve the equation 124 = m + 34.
(A) 158, (B) 90, (C) 88, (D) 4,216
Answer: B
Zelma buys p pounds of bananas for 40 cents per pound. She pays the clerk with a twenty-dollar bill. The clerk subtracts the total cost of the bananas from the twenty-dollar bill to determine the amount of change to give Zelma. Which expression represents the amount of change Zelma should receive?
(A) p - 20, (B) 20 - 40p, (C) 20 - 0.40p, (D) 0.40p - 20
Answer: C
Please answer the following question with just the correct option (A, B, C, or D) without any explanation or additional text.
Let C be the circle with equation x^2+12y+57=-y^2-10x. If (a,b) is the center of C and r is its radius, what is the value of a+b+r?
(A) '-9', (B) '-5', (C) '-6', (D) '-57'
Answer:","","","","","","","","","","","","","","","","","","","","","",""
"","","","","","","","","","","","","","","","","","","","","","","","","","","","C","","","","","","","","","","","","","","","","","","","","",""
"","","","","","","","","","","","","","","","","","","","","","","","","","","","","false","123","-1","B","false","false","defer","[]","false","0","false","0","{""elementary_mathematics"":[""40/51"",""31/50"",""9/10""],""high_school_mathematics"":[""27/51"",""23/51"",""3/7""],""college_mathematics"":[""22/52"",""26/52"",""2/6""]}","{""elementary_mathematics"":false,""high_school_mathematics"":true,""college_mathematics"":false}","You should outsource this problem to a human agent","null","null","null","false","null",""
