"trial_type","trial_index","time_elapsed","internal_node_id","subject","prolific_id","study_id","session_id","condition","rt","url","view_history","response","question_order","value","question","options","llm_answer","population_answer","task","subj_id","label","example_id","variant","main_variant","topic","prompt","0","btn_clicked","score","timeToClick","modelPred","humanCorrect","modelCorrect","interfaceType","modelPredDist","human_support_used","human_support_clicks","llm_support_used","llm_support_clicks","recommendation_lists","incorrect_answers_by_category","recommendation","LLM_outsourcing_overridden","human_outsourcing_overridden","ai_orch_agreement","human_orch_agreement","self_orch_agreement","stimulus"
"pavlovia","0","1007","0.0-0.0","t6odhfgx819d491","6174b049932ee98236563b51","67b62c430b9240ccd8986e70","67b63795ded013d75ebcb0b0","1","","","","","","","","","","","","","","","","","","","","","","","","","","","","","","","","","","","","","","","",""
"external-html","1","30025","0.0-1.0","t6odhfgx819d491","6174b049932ee98236563b51","67b62c430b9240ccd8986e70","67b63795ded013d75ebcb0b0","1","28395.900000000373","consent.html","","","","","","","","","","","","","","","","","","","","","","","","","","","","","","","","","","","","","",""
"instructions","2","330168","0.0-2.0-0.0","t6odhfgx819d491","6174b049932ee98236563b51","67b62c430b9240ccd8986e70","67b63795ded013d75ebcb0b0","1","300145.7000000011","","[{""page_index"":0,""viewing_time"":93511.20000000112},{""page_index"":1,""viewing_time"":122484.90000000037},{""page_index"":2,""viewing_time"":13739.299999998882},{""page_index"":3,""viewing_time"":13743.200000001118},{""page_index"":4,""viewing_time"":10155.599999999627},{""page_index"":5,""viewing_time"":16434.900000000373},{""page_index"":6,""viewing_time"":23958.599999999627},{""page_index"":7,""viewing_time"":6116.9000000003725}]","","","","","","","","","","","","","","","","","","","","","","","","","","","","","","","","","","","","",""
"survey-multi-choice","3","342962","0.0-2.0-1.0","t6odhfgx819d491","6174b049932ee98236563b51","67b62c430b9240ccd8986e70","67b63795ded013d75ebcb0b0","1","12786.300000000745","","","{""Q0"":""The answer to a mutliple choice question."",""Q1"":""Clicking on a radio button.""}","[0,1]","","","","","","","","","","","","","","","","","","","","","","","","","","","","","","","","","","",""
"instructions","4","384079","0.0-3.0","t6odhfgx819d491","6174b049932ee98236563b51","67b62c430b9240ccd8986e70","67b63795ded013d75ebcb0b0","1","41115","","[{""page_index"":0,""viewing_time"":41114.699999999255}]","","","","","","","","","","","","","","","","","","","","","","","","","","","","","","","","","","","","",""
"call-function","5","384081","0.0-4.0-0.0","t6odhfgx819d491","6174b049932ee98236563b51","67b62c430b9240ccd8986e70","67b63795ded013d75ebcb0b0","1","","","","","","defer","What is the range of the function f(x) = 1/1-x? Express your answer in interval notation.","[""(-infty,-1)cup (1,infty)"",""(-infty,0)cup (0,infty)"",""[-1,1]"",""(-1,1)""]","A","B","modiste","","B","64","algLinUCB_0.9","diff-topics","high_school_mathematics","The following are multiple choice questions about high_school_mathematics.
Colton and his dad bought a gallon of paint that cost $13. They also bought 2 brushes that cost $9 each. What was the total cost, not including tax, of the brushes and the paint they bought?
(A) $22, (B) $24, (C) $31, (D) $35
Answer: C
Solve for y. y – 2 + 3y = 10
(A) 2, (B) 3, (C) 4, (D) 5
Answer: B
Solve 3 over 2 * w = 66.
(A) 33, (B) 44, (C) 88, (D) 99
Answer: B
Write 5.875 as a mixed number or fraction in simplest form.
(A) 5 and 8 over 9, (B) 5 and 7 over 8, (C) 7 over 8, (D) 5 and 87 over 105
Answer: B
Solve the equation 124 = m + 34.
(A) 158, (B) 90, (C) 88, (D) 4,216
Answer: B
Zelma buys p pounds of bananas for 40 cents per pound. She pays the clerk with a twenty-dollar bill. The clerk subtracts the total cost of the bananas from the twenty-dollar bill to determine the amount of change to give Zelma. Which expression represents the amount of change Zelma should receive?
(A) p - 20, (B) 20 - 40p, (C) 20 - 0.40p, (D) 0.40p - 20
Answer: C
Please answer the following question with just the correct option (A, B, C, or D) without any explanation or additional text.
What is the range of the function f(x) = 1/1-x? Express your answer in interval notation.
(A) '(-infty,-1)cup (1,infty)', (B) '(-infty,0)cup (0,infty)', (C) '[-1,1]', (D) '(-1,1)'
Answer:","","","","","","","","","","","","","","","","","","","","","",""
"survey-html-form","6","462419","0.0-4.0-1.0","t6odhfgx819d491","6174b049932ee98236563b51","67b62c430b9240ccd8986e70","67b63795ded013d75ebcb0b0","1","78333.40000000037","","","{""mcAnswer"":""D""}","","","What is the range of the function f(x) = 1/1-x? Express your answer in interval notation.","[""(-infty,-1)cup (1,infty)"",""(-infty,0)cup (0,infty)"",""[-1,1]"",""(-1,1)""]","A","B","modiste","","B","64","algLinUCB_0.9","diff-topics","high_school_mathematics","The following are multiple choice questions about high_school_mathematics.
Colton and his dad bought a gallon of paint that cost $13. They also bought 2 brushes that cost $9 each. What was the total cost, not including tax, of the brushes and the paint they bought?
(A) $22, (B) $24, (C) $31, (D) $35
Answer: C
Solve for y. y – 2 + 3y = 10
(A) 2, (B) 3, (C) 4, (D) 5
Answer: B
Solve 3 over 2 * w = 66.
(A) 33, (B) 44, (C) 88, (D) 99
Answer: B
Write 5.875 as a mixed number or fraction in simplest form.
(A) 5 and 8 over 9, (B) 5 and 7 over 8, (C) 7 over 8, (D) 5 and 87 over 105
Answer: B
Solve the equation 124 = m + 34.
(A) 158, (B) 90, (C) 88, (D) 4,216
Answer: B
Zelma buys p pounds of bananas for 40 cents per pound. She pays the clerk with a twenty-dollar bill. The clerk subtracts the total cost of the bananas from the twenty-dollar bill to determine the amount of change to give Zelma. Which expression represents the amount of change Zelma should receive?
(A) p - 20, (B) 20 - 40p, (C) 20 - 0.40p, (D) 0.40p - 20
Answer: C
Please answer the following question with just the correct option (A, B, C, or D) without any explanation or additional text.
What is the range of the function f(x) = 1/1-x? Express your answer in interval notation.
(A) '(-infty,-1)cup (1,infty)', (B) '(-infty,0)cup (0,infty)', (C) '[-1,1]', (D) '(-1,1)'
Answer:","","","","","","","","","","","","","","","","","","","","","",""
"","","","","","","","","","","","","","","","","","","","","","","","","","","","D","","","","","","","","","","","","","","","","","","","","",""
"","","","","","","","","","","","","","","","","","","","","","","","","","","","","false","100","-1","A","false","false","defer","[]","false","0","false","0","{""elementary_mathematics"":[""40/50"",""31/50"",""4 / 5""],""high_school_mathematics"":[""27/50"",""22/50"",""3/6""],""college_mathematics"":[""22/50"",""26/50"",""2 / 5""]}","{""high_school_mathematics"":true}","You should attempt this problem by yourself","null","null","null","null","true",""
"image-keyboard-response","7","463925","0.0-4.0-2.0","t6odhfgx819d491","6174b049932ee98236563b51","67b62c430b9240ccd8986e70","67b63795ded013d75ebcb0b0","1","null","","","null","","","What is the range of the function f(x) = 1/1-x? Express your answer in interval notation.","[""(-infty,-1)cup (1,infty)"",""(-infty,0)cup (0,infty)"",""[-1,1]"",""(-1,1)""]","A","B","modiste","","B","64","algLinUCB_0.9","diff-topics","high_school_mathematics","The following are multiple choice questions about high_school_mathematics.
Colton and his dad bought a gallon of paint that cost $13. They also bought 2 brushes that cost $9 each. What was the total cost, not including tax, of the brushes and the paint they bought?
(A) $22, (B) $24, (C) $31, (D) $35
Answer: C
Solve for y. y – 2 + 3y = 10
(A) 2, (B) 3, (C) 4, (D) 5
Answer: B
Solve 3 over 2 * w = 66.
(A) 33, (B) 44, (C) 88, (D) 99
Answer: B
Write 5.875 as a mixed number or fraction in simplest form.
(A) 5 and 8 over 9, (B) 5 and 7 over 8, (C) 7 over 8, (D) 5 and 87 over 105
Answer: B
Solve the equation 124 = m + 34.
(A) 158, (B) 90, (C) 88, (D) 4,216
Answer: B
Zelma buys p pounds of bananas for 40 cents per pound. She pays the clerk with a twenty-dollar bill. The clerk subtracts the total cost of the bananas from the twenty-dollar bill to determine the amount of change to give Zelma. Which expression represents the amount of change Zelma should receive?
(A) p - 20, (B) 20 - 40p, (C) 20 - 0.40p, (D) 0.40p - 20
Answer: C
Please answer the following question with just the correct option (A, B, C, or D) without any explanation or additional text.
What is the range of the function f(x) = 1/1-x? Express your answer in interval notation.
(A) '(-infty,-1)cup (1,infty)', (B) '(-infty,0)cup (0,infty)', (C) '[-1,1]', (D) '(-1,1)'
Answer:","","","","","","","","","","","","","","","","","","","","","","feedback_imgs/Incorrect.png"
"call-function","8","463926","0.0-4.0-0.1","t6odhfgx819d491","6174b049932ee98236563b51","67b62c430b9240ccd8986e70","67b63795ded013d75ebcb0b0","1","","","","","","defer","If v is an eigenvector of an invertible matrix A, then which of the following is I are necessarily
true?
I. v is also an eigenvector of 2A.
II. v is also an eigenvector of A^2.
III. v is also an eigenvector of A^(-1).","[""I only"",""II only"",""III only"",""I, II, and III""]","D","B","modiste","","D","100","algLinUCB_0.9","diff-topics","college_mathematics","The following are multiple choice questions about high_school_mathematics.
Colton and his dad bought a gallon of paint that cost $13. They also bought 2 brushes that cost $9 each. What was the total cost, not including tax, of the brushes and the paint they bought?
(A) $22, (B) $24, (C) $31, (D) $35
Answer: C
Solve for y. y – 2 + 3y = 10
(A) 2, (B) 3, (C) 4, (D) 5
Answer: B
Solve 3 over 2 * w = 66.
(A) 33, (B) 44, (C) 88, (D) 99
Answer: B
Write 5.875 as a mixed number or fraction in simplest form.
(A) 5 and 8 over 9, (B) 5 and 7 over 8, (C) 7 over 8, (D) 5 and 87 over 105
Answer: B
Solve the equation 124 = m + 34.
(A) 158, (B) 90, (C) 88, (D) 4,216
Answer: B
Zelma buys p pounds of bananas for 40 cents per pound. She pays the clerk with a twenty-dollar bill. The clerk subtracts the total cost of the bananas from the twenty-dollar bill to determine the amount of change to give Zelma. Which expression represents the amount of change Zelma should receive?
(A) p - 20, (B) 20 - 40p, (C) 20 - 0.40p, (D) 0.40p - 20
Answer: C
Please answer the following question with just the correct option (A, B, C, or D) without any explanation or additional text.
If v is an eigenvector of an invertible matrix A, then which of the following is I are necessarily
true?
I. v is also an eigenvector of 2A.
II. v is also an eigenvector of A^2.
III. v is also an eigenvector of A^(-1).
(A) 'I only', (B) 'II only', (C) 'III only', (D) 'I, II, and III'
Answer:","","","","","","","","","","","","true","2","","","","","","","","",""
"survey-html-form","9","494605","0.0-4.0-1.1","t6odhfgx819d491","6174b049932ee98236563b51","67b62c430b9240ccd8986e70","67b63795ded013d75ebcb0b0","1","30676.299999998882","","","{""mcAnswer"":""D""}","","","If v is an eigenvector of an invertible matrix A, then which of the following is I are necessarily
true?
I. v is also an eigenvector of 2A.
II. v is also an eigenvector of A^2.
III. v is also an eigenvector of A^(-1).","[""I only"",""II only"",""III only"",""I, II, and III""]","D","B","modiste","","D","100","algLinUCB_0.9","diff-topics","college_mathematics","The following are multiple choice questions about high_school_mathematics.
Colton and his dad bought a gallon of paint that cost $13. They also bought 2 brushes that cost $9 each. What was the total cost, not including tax, of the brushes and the paint they bought?
(A) $22, (B) $24, (C) $31, (D) $35
Answer: C
Solve for y. y – 2 + 3y = 10
(A) 2, (B) 3, (C) 4, (D) 5
Answer: B
Solve 3 over 2 * w = 66.
(A) 33, (B) 44, (C) 88, (D) 99
Answer: B
Write 5.875 as a mixed number or fraction in simplest form.
(A) 5 and 8 over 9, (B) 5 and 7 over 8, (C) 7 over 8, (D) 5 and 87 over 105
Answer: B
Solve the equation 124 = m + 34.
(A) 158, (B) 90, (C) 88, (D) 4,216
Answer: B
Zelma buys p pounds of bananas for 40 cents per pound. She pays the clerk with a twenty-dollar bill. The clerk subtracts the total cost of the bananas from the twenty-dollar bill to determine the amount of change to give Zelma. Which expression represents the amount of change Zelma should receive?
(A) p - 20, (B) 20 - 40p, (C) 20 - 0.40p, (D) 0.40p - 20
Answer: C
Please answer the following question with just the correct option (A, B, C, or D) without any explanation or additional text.
If v is an eigenvector of an invertible matrix A, then which of the following is I are necessarily
true?
I. v is also an eigenvector of 2A.
II. v is also an eigenvector of A^2.
III. v is also an eigenvector of A^(-1).
(A) 'I only', (B) 'II only', (C) 'III only', (D) 'I, II, and III'
Answer:","","","","","","","","","","","","","","","","","","","","","",""
"","","","","","","","","","","","","","","","","","","","","","","","","","","","D","","","","","","","","","","","","","","","","","","","","",""
"","","","","","","","","","","","","","","","","","","","","","","","","","","","","false","107","-1","D","true","true","defer","[]","false","0","true","2","{""elementary_mathematics"":[""40/50"",""31/50"",""4 / 5""],""high_school_mathematics"":[""27/50"",""22/50"",""3/6""],""college_mathematics"":[""22/50"",""27/51"",""2 / 5""]}","{""high_school_mathematics"":true,""college_mathematics"":false}","You should outsource this problem to the AI agent","false","null","true","null","null",""
"image-keyboard-response","10","496108","0.0-4.0-2.1","t6odhfgx819d491","6174b049932ee98236563b51","67b62c430b9240ccd8986e70","67b63795ded013d75ebcb0b0","1","null","","","null","","","If v is an eigenvector of an invertible matrix A, then which of the following is I are necessarily
true?
I. v is also an eigenvector of 2A.
II. v is also an eigenvector of A^2.
III. v is also an eigenvector of A^(-1).","[""I only"",""II only"",""III only"",""I, II, and III""]","D","B","modiste","","D","100","algLinUCB_0.9","diff-topics","college_mathematics","The following are multiple choice questions about high_school_mathematics.
Colton and his dad bought a gallon of paint that cost $13. They also bought 2 brushes that cost $9 each. What was the total cost, not including tax, of the brushes and the paint they bought?
(A) $22, (B) $24, (C) $31, (D) $35
Answer: C
Solve for y. y – 2 + 3y = 10
(A) 2, (B) 3, (C) 4, (D) 5
Answer: B
Solve 3 over 2 * w = 66.
(A) 33, (B) 44, (C) 88, (D) 99
Answer: B
Write 5.875 as a mixed number or fraction in simplest form.
(A) 5 and 8 over 9, (B) 5 and 7 over 8, (C) 7 over 8, (D) 5 and 87 over 105
Answer: B
Solve the equation 124 = m + 34.
(A) 158, (B) 90, (C) 88, (D) 4,216
Answer: B
Zelma buys p pounds of bananas for 40 cents per pound. She pays the clerk with a twenty-dollar bill. The clerk subtracts the total cost of the bananas from the twenty-dollar bill to determine the amount of change to give Zelma. Which expression represents the amount of change Zelma should receive?
(A) p - 20, (B) 20 - 40p, (C) 20 - 0.40p, (D) 0.40p - 20
Answer: C
Please answer the following question with just the correct option (A, B, C, or D) without any explanation or additional text.
If v is an eigenvector of an invertible matrix A, then which of the following is I are necessarily
true?
I. v is also an eigenvector of 2A.
II. v is also an eigenvector of A^2.
III. v is also an eigenvector of A^(-1).
(A) 'I only', (B) 'II only', (C) 'III only', (D) 'I, II, and III'
Answer:","","","","","","","","","","","","","","","","","","","","","","feedback_imgs/Correct.png"
"call-function","11","496109","0.0-4.0-0.2","t6odhfgx819d491","6174b049932ee98236563b51","67b62c430b9240ccd8986e70","67b63795ded013d75ebcb0b0","1","","","","","","defer","What is the smallest positive integer with factors of 16, 15, and 12?","[""240"",""120"",""60"",""111""]","C","A","modiste","","A","77","algLinUCB_0.9","diff-topics","high_school_mathematics","The following are multiple choice questions about high_school_mathematics.
Colton and his dad bought a gallon of paint that cost $13. They also bought 2 brushes that cost $9 each. What was the total cost, not including tax, of the brushes and the paint they bought?
(A) $22, (B) $24, (C) $31, (D) $35
Answer: C
Solve for y. y – 2 + 3y = 10
(A) 2, (B) 3, (C) 4, (D) 5
Answer: B
Solve 3 over 2 * w = 66.
(A) 33, (B) 44, (C) 88, (D) 99
Answer: B
Write 5.875 as a mixed number or fraction in simplest form.
(A) 5 and 8 over 9, (B) 5 and 7 over 8, (C) 7 over 8, (D) 5 and 87 over 105
Answer: B
Solve the equation 124 = m + 34.
(A) 158, (B) 90, (C) 88, (D) 4,216
Answer: B
Zelma buys p pounds of bananas for 40 cents per pound. She pays the clerk with a twenty-dollar bill. The clerk subtracts the total cost of the bananas from the twenty-dollar bill to determine the amount of change to give Zelma. Which expression represents the amount of change Zelma should receive?
(A) p - 20, (B) 20 - 40p, (C) 20 - 0.40p, (D) 0.40p - 20
Answer: C
Please answer the following question with just the correct option (A, B, C, or D) without any explanation or additional text.
What is the smallest positive integer with factors of 16, 15, and 12?
(A) '12', (B) '22', (C) '840', (D) '240'
Answer:","","","","","","","","","","true","2","","","","","","","","","","",""
"survey-html-form","12","567170","0.0-4.0-1.2","t6odhfgx819d491","6174b049932ee98236563b51","67b62c430b9240ccd8986e70","67b63795ded013d75ebcb0b0","1","71061.59999999963","","","{""mcAnswer"":""A""}","","","What is the smallest positive integer with factors of 16, 15, and 12?","[""240"",""120"",""60"",""111""]","C","A","modiste","","A","77","algLinUCB_0.9","diff-topics","high_school_mathematics","The following are multiple choice questions about high_school_mathematics.
Colton and his dad bought a gallon of paint that cost $13. They also bought 2 brushes that cost $9 each. What was the total cost, not including tax, of the brushes and the paint they bought?
(A) $22, (B) $24, (C) $31, (D) $35
Answer: C
Solve for y. y – 2 + 3y = 10
(A) 2, (B) 3, (C) 4, (D) 5
Answer: B
Solve 3 over 2 * w = 66.
(A) 33, (B) 44, (C) 88, (D) 99
Answer: B
Write 5.875 as a mixed number or fraction in simplest form.
(A) 5 and 8 over 9, (B) 5 and 7 over 8, (C) 7 over 8, (D) 5 and 87 over 105
Answer: B
Solve the equation 124 = m + 34.
(A) 158, (B) 90, (C) 88, (D) 4,216
Answer: B
Zelma buys p pounds of bananas for 40 cents per pound. She pays the clerk with a twenty-dollar bill. The clerk subtracts the total cost of the bananas from the twenty-dollar bill to determine the amount of change to give Zelma. Which expression represents the amount of change Zelma should receive?
(A) p - 20, (B) 20 - 40p, (C) 20 - 0.40p, (D) 0.40p - 20
Answer: C
Please answer the following question with just the correct option (A, B, C, or D) without any explanation or additional text.
What is the smallest positive integer with factors of 16, 15, and 12?
(A) '12', (B) '22', (C) '840', (D) '240'
Answer:","","","","","","","","","","","","","","","","","","","","","",""
"","","","","","","","","","","","","","","","","","","","","","","","","","","","A","","","","","","","","","","","","","","","","","","","","",""
"","","","","","","","","","","","","","","","","","","","","","","","","","","","","false","110","-1","C","true","false","defer","[]","true","2","false","0","{""elementary_mathematics"":[""40/50"",""31/50"",""4 / 5""],""high_school_mathematics"":[""28/51"",""22/50"",""3/6""],""college_mathematics"":[""22/50"",""27/51"",""2 / 5""]}","{""high_school_mathematics"":false,""college_mathematics"":false}","You were wrong by yourself on high_school_mathematics last time. You should outsource this problem to a human agent","null","false","null","true","null",""
"image-keyboard-response","13","568674","0.0-4.0-2.2","t6odhfgx819d491","6174b049932ee98236563b51","67b62c430b9240ccd8986e70","67b63795ded013d75ebcb0b0","1","null","","","null","","","What is the smallest positive integer with factors of 16, 15, and 12?","[""240"",""120"",""60"",""111""]","C","A","modiste","","A","77","algLinUCB_0.9","diff-topics","high_school_mathematics","The following are multiple choice questions about high_school_mathematics.
Colton and his dad bought a gallon of paint that cost $13. They also bought 2 brushes that cost $9 each. What was the total cost, not including tax, of the brushes and the paint they bought?
(A) $22, (B) $24, (C) $31, (D) $35
Answer: C
Solve for y. y – 2 + 3y = 10
(A) 2, (B) 3, (C) 4, (D) 5
Answer: B
Solve 3 over 2 * w = 66.
(A) 33, (B) 44, (C) 88, (D) 99
Answer: B
Write 5.875 as a mixed number or fraction in simplest form.
(A) 5 and 8 over 9, (B) 5 and 7 over 8, (C) 7 over 8, (D) 5 and 87 over 105
Answer: B
Solve the equation 124 = m + 34.
(A) 158, (B) 90, (C) 88, (D) 4,216
Answer: B
Zelma buys p pounds of bananas for 40 cents per pound. She pays the clerk with a twenty-dollar bill. The clerk subtracts the total cost of the bananas from the twenty-dollar bill to determine the amount of change to give Zelma. Which expression represents the amount of change Zelma should receive?
(A) p - 20, (B) 20 - 40p, (C) 20 - 0.40p, (D) 0.40p - 20
Answer: C
Please answer the following question with just the correct option (A, B, C, or D) without any explanation or additional text.
What is the smallest positive integer with factors of 16, 15, and 12?
(A) '12', (B) '22', (C) '840', (D) '240'
Answer:","","","","","","","","","","","","","","","","","","","","","","feedback_imgs/Correct.png"
"call-function","14","568674","0.0-4.0-0.3","t6odhfgx819d491","6174b049932ee98236563b51","67b62c430b9240ccd8986e70","67b63795ded013d75ebcb0b0","1","","","","","","defer","The polynomial which results from the expansion of (x^2+5x+6)^2+(px+q)(x^3+7x^2+3x) has degree 2. Find p+q.","[""-2"",""-4"",""-1"",""1""]","B","B","modiste","","B","62","algLinUCB_0.9","diff-topics","high_school_mathematics","The following are multiple choice questions about high_school_mathematics.
Colton and his dad bought a gallon of paint that cost $13. They also bought 2 brushes that cost $9 each. What was the total cost, not including tax, of the brushes and the paint they bought?
(A) $22, (B) $24, (C) $31, (D) $35
Answer: C
Solve for y. y – 2 + 3y = 10
(A) 2, (B) 3, (C) 4, (D) 5
Answer: B
Solve 3 over 2 * w = 66.
(A) 33, (B) 44, (C) 88, (D) 99
Answer: B
Write 5.875 as a mixed number or fraction in simplest form.
(A) 5 and 8 over 9, (B) 5 and 7 over 8, (C) 7 over 8, (D) 5 and 87 over 105
Answer: B
Solve the equation 124 = m + 34.
(A) 158, (B) 90, (C) 88, (D) 4,216
Answer: B
Zelma buys p pounds of bananas for 40 cents per pound. She pays the clerk with a twenty-dollar bill. The clerk subtracts the total cost of the bananas from the twenty-dollar bill to determine the amount of change to give Zelma. Which expression represents the amount of change Zelma should receive?
(A) p - 20, (B) 20 - 40p, (C) 20 - 0.40p, (D) 0.40p - 20
Answer: C
Please answer the following question with just the correct option (A, B, C, or D) without any explanation or additional text.
The polynomial which results from the expansion of (x^2+5x+6)^2+(px+q)(x^3+7x^2+3x) has degree 2. Find p+q.
(A) '-2', (B) '-4', (C) '-1', (D) '1'
Answer:","","","","","","","","","","","","true","2","","","","","","","","",""
"survey-html-form","15","596173","0.0-4.0-1.3","t6odhfgx819d491","6174b049932ee98236563b51","67b62c430b9240ccd8986e70","67b63795ded013d75ebcb0b0","1","27495.599999999627","","","{""mcAnswer"":""B""}","","","The polynomial which results from the expansion of (x^2+5x+6)^2+(px+q)(x^3+7x^2+3x) has degree 2. Find p+q.","[""-2"",""-4"",""-1"",""1""]","B","B","modiste","","B","62","algLinUCB_0.9","diff-topics","high_school_mathematics","The following are multiple choice questions about high_school_mathematics.
Colton and his dad bought a gallon of paint that cost $13. They also bought 2 brushes that cost $9 each. What was the total cost, not including tax, of the brushes and the paint they bought?
(A) $22, (B) $24, (C) $31, (D) $35
Answer: C
Solve for y. y – 2 + 3y = 10
(A) 2, (B) 3, (C) 4, (D) 5
Answer: B
Solve 3 over 2 * w = 66.
(A) 33, (B) 44, (C) 88, (D) 99
Answer: B
Write 5.875 as a mixed number or fraction in simplest form.
(A) 5 and 8 over 9, (B) 5 and 7 over 8, (C) 7 over 8, (D) 5 and 87 over 105
Answer: B
Solve the equation 124 = m + 34.
(A) 158, (B) 90, (C) 88, (D) 4,216
Answer: B
Zelma buys p pounds of bananas for 40 cents per pound. She pays the clerk with a twenty-dollar bill. The clerk subtracts the total cost of the bananas from the twenty-dollar bill to determine the amount of change to give Zelma. Which expression represents the amount of change Zelma should receive?
(A) p - 20, (B) 20 - 40p, (C) 20 - 0.40p, (D) 0.40p - 20
Answer: C
Please answer the following question with just the correct option (A, B, C, or D) without any explanation or additional text.
The polynomial which results from the expansion of (x^2+5x+6)^2+(px+q)(x^3+7x^2+3x) has degree 2. Find p+q.
(A) '-2', (B) '-4', (C) '-1', (D) '1'
Answer:","","","","","","","","","","","","","","","","","","","","","",""
"","","","","","","","","","","","","","","","","","","","","","","","","","","","B","","","","","","","","","","","","","","","","","","","","",""
"","","","","","","","","","","","","","","","","","","","","","","","","","","","","false","117","-1","B","true","true","defer","[]","false","0","true","2","{""elementary_mathematics"":[""40/50"",""31/50"",""4 / 5""],""high_school_mathematics"":[""28/51"",""23/51"",""3/6""],""college_mathematics"":[""22/50"",""27/51"",""2 / 5""]}","{""high_school_mathematics"":false,""college_mathematics"":false}","You should outsource this problem to a human agent","false","null","null","false","null",""
"image-keyboard-response","16","597693","0.0-4.0-2.3","t6odhfgx819d491","6174b049932ee98236563b51","67b62c430b9240ccd8986e70","67b63795ded013d75ebcb0b0","1","null","","","null","","","The polynomial which results from the expansion of (x^2+5x+6)^2+(px+q)(x^3+7x^2+3x) has degree 2. Find p+q.","[""-2"",""-4"",""-1"",""1""]","B","B","modiste","","B","62","algLinUCB_0.9","diff-topics","high_school_mathematics","The following are multiple choice questions about high_school_mathematics.
Colton and his dad bought a gallon of paint that cost $13. They also bought 2 brushes that cost $9 each. What was the total cost, not including tax, of the brushes and the paint they bought?
(A) $22, (B) $24, (C) $31, (D) $35
Answer: C
Solve for y. y – 2 + 3y = 10
(A) 2, (B) 3, (C) 4, (D) 5
Answer: B
Solve 3 over 2 * w = 66.
(A) 33, (B) 44, (C) 88, (D) 99
Answer: B
Write 5.875 as a mixed number or fraction in simplest form.
(A) 5 and 8 over 9, (B) 5 and 7 over 8, (C) 7 over 8, (D) 5 and 87 over 105
Answer: B
Solve the equation 124 = m + 34.
(A) 158, (B) 90, (C) 88, (D) 4,216
Answer: B
Zelma buys p pounds of bananas for 40 cents per pound. She pays the clerk with a twenty-dollar bill. The clerk subtracts the total cost of the bananas from the twenty-dollar bill to determine the amount of change to give Zelma. Which expression represents the amount of change Zelma should receive?
(A) p - 20, (B) 20 - 40p, (C) 20 - 0.40p, (D) 0.40p - 20
Answer: C
Please answer the following question with just the correct option (A, B, C, or D) without any explanation or additional text.
The polynomial which results from the expansion of (x^2+5x+6)^2+(px+q)(x^3+7x^2+3x) has degree 2. Find p+q.
(A) '-2', (B) '-4', (C) '-1', (D) '1'
Answer:","","","","","","","","","","","","","","","","","","","","","","feedback_imgs/Correct.png"
"call-function","17","597693","0.0-4.0-0.4","t6odhfgx819d491","6174b049932ee98236563b51","67b62c430b9240ccd8986e70","67b63795ded013d75ebcb0b0","1","","","","","","defer","Find the product of 5.7(8) mentally using the Distributive Property.","[""46.4"",""456"",""4.56"",""45.6""]","D","D","modiste","","D","86","algLinUCB_0.9","diff-topics","elementary_mathematics","The following are multiple choice questions about high_school_mathematics.
Colton and his dad bought a gallon of paint that cost $13. They also bought 2 brushes that cost $9 each. What was the total cost, not including tax, of the brushes and the paint they bought?
(A) $22, (B) $24, (C) $31, (D) $35
Answer: C
Solve for y. y – 2 + 3y = 10
(A) 2, (B) 3, (C) 4, (D) 5
Answer: B
Solve 3 over 2 * w = 66.
(A) 33, (B) 44, (C) 88, (D) 99
Answer: B
Write 5.875 as a mixed number or fraction in simplest form.
(A) 5 and 8 over 9, (B) 5 and 7 over 8, (C) 7 over 8, (D) 5 and 87 over 105
Answer: B
Solve the equation 124 = m + 34.
(A) 158, (B) 90, (C) 88, (D) 4,216
Answer: B
Zelma buys p pounds of bananas for 40 cents per pound. She pays the clerk with a twenty-dollar bill. The clerk subtracts the total cost of the bananas from the twenty-dollar bill to determine the amount of change to give Zelma. Which expression represents the amount of change Zelma should receive?
(A) p - 20, (B) 20 - 40p, (C) 20 - 0.40p, (D) 0.40p - 20
Answer: C
Please answer the following question with just the correct option (A, B, C, or D) without any explanation or additional text.
Find the product of 5.7(8) mentally using the Distributive Property.
(A) '46.4', (B) '456', (C) '4.56', (D) '45.6'
Answer:","","","","","","","","","","","","","","","","","","","","","",""
"survey-html-form","18","625656","0.0-4.0-1.4","t6odhfgx819d491","6174b049932ee98236563b51","67b62c430b9240ccd8986e70","67b63795ded013d75ebcb0b0","1","27963.200000001118","","","{""mcAnswer"":""D""}","","","Find the product of 5.7(8) mentally using the Distributive Property.","[""46.4"",""456"",""4.56"",""45.6""]","D","D","modiste","","D","86","algLinUCB_0.9","diff-topics","elementary_mathematics","The following are multiple choice questions about high_school_mathematics.
Colton and his dad bought a gallon of paint that cost $13. They also bought 2 brushes that cost $9 each. What was the total cost, not including tax, of the brushes and the paint they bought?
(A) $22, (B) $24, (C) $31, (D) $35
Answer: C
Solve for y. y – 2 + 3y = 10
(A) 2, (B) 3, (C) 4, (D) 5
Answer: B
Solve 3 over 2 * w = 66.
(A) 33, (B) 44, (C) 88, (D) 99
Answer: B
Write 5.875 as a mixed number or fraction in simplest form.
(A) 5 and 8 over 9, (B) 5 and 7 over 8, (C) 7 over 8, (D) 5 and 87 over 105
Answer: B
Solve the equation 124 = m + 34.
(A) 158, (B) 90, (C) 88, (D) 4,216
Answer: B
Zelma buys p pounds of bananas for 40 cents per pound. She pays the clerk with a twenty-dollar bill. The clerk subtracts the total cost of the bananas from the twenty-dollar bill to determine the amount of change to give Zelma. Which expression represents the amount of change Zelma should receive?
(A) p - 20, (B) 20 - 40p, (C) 20 - 0.40p, (D) 0.40p - 20
Answer: C
Please answer the following question with just the correct option (A, B, C, or D) without any explanation or additional text.
Find the product of 5.7(8) mentally using the Distributive Property.
(A) '46.4', (B) '456', (C) '4.56', (D) '45.6'
Answer:","","","","","","","","","","","","","","","","","","","","","",""
"","","","","","","","","","","","","","","","","","","","","","","","","","","","D","","","","","","","","","","","","","","","","","","","","",""
"","","","","","","","","","","","","","","","","","","","","","","","","","","","","false","127","-1","D","true","true","defer","[]","false","0","false","0","{""elementary_mathematics"":[""40/50"",""31/50"",""5/6""],""high_school_mathematics"":[""28/51"",""23/51"",""3/6""],""college_mathematics"":[""22/50"",""27/51"",""2 / 5""]}","{""high_school_mathematics"":false,""college_mathematics"":false,""elementary_mathematics"":false}","You should attempt this problem by yourself","null","null","null","null","true",""
"image-keyboard-response","19","627180","0.0-4.0-2.4","t6odhfgx819d491","6174b049932ee98236563b51","67b62c430b9240ccd8986e70","67b63795ded013d75ebcb0b0","1","null","","","null","","","Find the product of 5.7(8) mentally using the Distributive Property.","[""46.4"",""456"",""4.56"",""45.6""]","D","D","modiste","","D","86","algLinUCB_0.9","diff-topics","elementary_mathematics","The following are multiple choice questions about high_school_mathematics.
Colton and his dad bought a gallon of paint that cost $13. They also bought 2 brushes that cost $9 each. What was the total cost, not including tax, of the brushes and the paint they bought?
(A) $22, (B) $24, (C) $31, (D) $35
Answer: C
Solve for y. y – 2 + 3y = 10
(A) 2, (B) 3, (C) 4, (D) 5
Answer: B
Solve 3 over 2 * w = 66.
(A) 33, (B) 44, (C) 88, (D) 99
Answer: B
Write 5.875 as a mixed number or fraction in simplest form.
(A) 5 and 8 over 9, (B) 5 and 7 over 8, (C) 7 over 8, (D) 5 and 87 over 105
Answer: B
Solve the equation 124 = m + 34.
(A) 158, (B) 90, (C) 88, (D) 4,216
Answer: B
Zelma buys p pounds of bananas for 40 cents per pound. She pays the clerk with a twenty-dollar bill. The clerk subtracts the total cost of the bananas from the twenty-dollar bill to determine the amount of change to give Zelma. Which expression represents the amount of change Zelma should receive?
(A) p - 20, (B) 20 - 40p, (C) 20 - 0.40p, (D) 0.40p - 20
Answer: C
Please answer the following question with just the correct option (A, B, C, or D) without any explanation or additional text.
Find the product of 5.7(8) mentally using the Distributive Property.
(A) '46.4', (B) '456', (C) '4.56', (D) '45.6'
Answer:","","","","","","","","","","","","","","","","","","","","","","feedback_imgs/Correct.png"
"call-function","20","627181","0.0-4.0-0.5","t6odhfgx819d491","6174b049932ee98236563b51","67b62c430b9240ccd8986e70","67b63795ded013d75ebcb0b0","1","","","","","","defer","Which of the following is an equation of the line tangent to the graph of y = x + e^x at x = 0 ?","[""y = 2x + 1"",""y = 2x"",""y = x + 2"",""y = x + 1""]","D","A","modiste","","A","116","algLinUCB_0.9","diff-topics","college_mathematics","The following are multiple choice questions about high_school_mathematics.
Colton and his dad bought a gallon of paint that cost $13. They also bought 2 brushes that cost $9 each. What was the total cost, not including tax, of the brushes and the paint they bought?
(A) $22, (B) $24, (C) $31, (D) $35
Answer: C
Solve for y. y – 2 + 3y = 10
(A) 2, (B) 3, (C) 4, (D) 5
Answer: B
Solve 3 over 2 * w = 66.
(A) 33, (B) 44, (C) 88, (D) 99
Answer: B
Write 5.875 as a mixed number or fraction in simplest form.
(A) 5 and 8 over 9, (B) 5 and 7 over 8, (C) 7 over 8, (D) 5 and 87 over 105
Answer: B
Solve the equation 124 = m + 34.
(A) 158, (B) 90, (C) 88, (D) 4,216
Answer: B
Zelma buys p pounds of bananas for 40 cents per pound. She pays the clerk with a twenty-dollar bill. The clerk subtracts the total cost of the bananas from the twenty-dollar bill to determine the amount of change to give Zelma. Which expression represents the amount of change Zelma should receive?
(A) p - 20, (B) 20 - 40p, (C) 20 - 0.40p, (D) 0.40p - 20
Answer: C
Please answer the following question with just the correct option (A, B, C, or D) without any explanation or additional text.
Which of the following is an equation of the line tangent to the graph of y = x + e^x at x = 0 ?
(A) 'y = 2x + 1', (B) 'y = 2x', (C) 'y = x + 2', (D) 'y = x + 1'
Answer:","","","","","","","","","","","","true","2","","","","","","","","",""
"survey-html-form","21","644427","0.0-4.0-1.5","t6odhfgx819d491","6174b049932ee98236563b51","67b62c430b9240ccd8986e70","67b63795ded013d75ebcb0b0","1","17243.10000000149","","","{""mcAnswer"":""D""}","","","Which of the following is an equation of the line tangent to the graph of y = x + e^x at x = 0 ?","[""y = 2x + 1"",""y = 2x"",""y = x + 2"",""y = x + 1""]","D","A","modiste","","A","116","algLinUCB_0.9","diff-topics","college_mathematics","The following are multiple choice questions about high_school_mathematics.
Colton and his dad bought a gallon of paint that cost $13. They also bought 2 brushes that cost $9 each. What was the total cost, not including tax, of the brushes and the paint they bought?
(A) $22, (B) $24, (C) $31, (D) $35
Answer: C
Solve for y. y – 2 + 3y = 10
(A) 2, (B) 3, (C) 4, (D) 5
Answer: B
Solve 3 over 2 * w = 66.
(A) 33, (B) 44, (C) 88, (D) 99
Answer: B
Write 5.875 as a mixed number or fraction in simplest form.
(A) 5 and 8 over 9, (B) 5 and 7 over 8, (C) 7 over 8, (D) 5 and 87 over 105
Answer: B
Solve the equation 124 = m + 34.
(A) 158, (B) 90, (C) 88, (D) 4,216
Answer: B
Zelma buys p pounds of bananas for 40 cents per pound. She pays the clerk with a twenty-dollar bill. The clerk subtracts the total cost of the bananas from the twenty-dollar bill to determine the amount of change to give Zelma. Which expression represents the amount of change Zelma should receive?
(A) p - 20, (B) 20 - 40p, (C) 20 - 0.40p, (D) 0.40p - 20
Answer: C
Please answer the following question with just the correct option (A, B, C, or D) without any explanation or additional text.
Which of the following is an equation of the line tangent to the graph of y = x + e^x at x = 0 ?
(A) 'y = 2x + 1', (B) 'y = 2x', (C) 'y = x + 2', (D) 'y = x + 1'
Answer:","","","","","","","","","","","","","","","","","","","","","",""
"","","","","","","","","","","","","","","","","","","","","","","","","","","","D","","","","","","","","","","","","","","","","","","","","",""
"","","","","","","","","","","","","","","","","","","","","","","","","","","","","false","124","-1","D","false","false","defer","[]","false","0","true","2","{""elementary_mathematics"":[""40/50"",""31/50"",""5/6""],""high_school_mathematics"":[""28/51"",""23/51"",""3/6""],""college_mathematics"":[""22/50"",""27/52"",""2 / 5""]}","{""high_school_mathematics"":false,""college_mathematics"":false,""elementary_mathematics"":false}","You should outsource this problem to the AI agent","false","null","true","null","null",""
"image-keyboard-response","22","645950","0.0-4.0-2.5","t6odhfgx819d491","6174b049932ee98236563b51","67b62c430b9240ccd8986e70","67b63795ded013d75ebcb0b0","1","null","","","null","","","Which of the following is an equation of the line tangent to the graph of y = x + e^x at x = 0 ?","[""y = 2x + 1"",""y = 2x"",""y = x + 2"",""y = x + 1""]","D","A","modiste","","A","116","algLinUCB_0.9","diff-topics","college_mathematics","The following are multiple choice questions about high_school_mathematics.
Colton and his dad bought a gallon of paint that cost $13. They also bought 2 brushes that cost $9 each. What was the total cost, not including tax, of the brushes and the paint they bought?
(A) $22, (B) $24, (C) $31, (D) $35
Answer: C
Solve for y. y – 2 + 3y = 10
(A) 2, (B) 3, (C) 4, (D) 5
Answer: B
Solve 3 over 2 * w = 66.
(A) 33, (B) 44, (C) 88, (D) 99
Answer: B
Write 5.875 as a mixed number or fraction in simplest form.
(A) 5 and 8 over 9, (B) 5 and 7 over 8, (C) 7 over 8, (D) 5 and 87 over 105
Answer: B
Solve the equation 124 = m + 34.
(A) 158, (B) 90, (C) 88, (D) 4,216
Answer: B
Zelma buys p pounds of bananas for 40 cents per pound. She pays the clerk with a twenty-dollar bill. The clerk subtracts the total cost of the bananas from the twenty-dollar bill to determine the amount of change to give Zelma. Which expression represents the amount of change Zelma should receive?
(A) p - 20, (B) 20 - 40p, (C) 20 - 0.40p, (D) 0.40p - 20
Answer: C
Please answer the following question with just the correct option (A, B, C, or D) without any explanation or additional text.
Which of the following is an equation of the line tangent to the graph of y = x + e^x at x = 0 ?
(A) 'y = 2x + 1', (B) 'y = 2x', (C) 'y = x + 2', (D) 'y = x + 1'
Answer:","","","","","","","","","","","","","","","","","","","","","","feedback_imgs/Incorrect.png"
"call-function","23","645951","0.0-4.0-0.6","t6odhfgx819d491","6174b049932ee98236563b51","67b62c430b9240ccd8986e70","67b63795ded013d75ebcb0b0","1","","","","","","defer","Let n be the product of the two smallest 3-digit prime numbers. Find the sum of the digits of n.","[""8"",""3"",""6"",""9""]","A","C","modiste","","A","61","algLinUCB_0.9","diff-topics","high_school_mathematics","The following are multiple choice questions about high_school_mathematics.
Colton and his dad bought a gallon of paint that cost $13. They also bought 2 brushes that cost $9 each. What was the total cost, not including tax, of the brushes and the paint they bought?
(A) $22, (B) $24, (C) $31, (D) $35
Answer: C
Solve for y. y – 2 + 3y = 10
(A) 2, (B) 3, (C) 4, (D) 5
Answer: B
Solve 3 over 2 * w = 66.
(A) 33, (B) 44, (C) 88, (D) 99
Answer: B
Write 5.875 as a mixed number or fraction in simplest form.
(A) 5 and 8 over 9, (B) 5 and 7 over 8, (C) 7 over 8, (D) 5 and 87 over 105
Answer: B
Solve the equation 124 = m + 34.
(A) 158, (B) 90, (C) 88, (D) 4,216
Answer: B
Zelma buys p pounds of bananas for 40 cents per pound. She pays the clerk with a twenty-dollar bill. The clerk subtracts the total cost of the bananas from the twenty-dollar bill to determine the amount of change to give Zelma. Which expression represents the amount of change Zelma should receive?
(A) p - 20, (B) 20 - 40p, (C) 20 - 0.40p, (D) 0.40p - 20
Answer: C
Please answer the following question with just the correct option (A, B, C, or D) without any explanation or additional text.
Let n be the product of the two smallest 3-digit prime numbers. Find the sum of the digits of n.
(A) '8', (B) '3', (C) '6', (D) '9'
Answer:","","","","","","","","","","","","true","2","","","","","","","","",""
"survey-html-form","24","729564","0.0-4.0-1.6","t6odhfgx819d491","6174b049932ee98236563b51","67b62c430b9240ccd8986e70","67b63795ded013d75ebcb0b0","1","83604.09999999963","","","{""mcAnswer"":""A""}","","","Let n be the product of the two smallest 3-digit prime numbers. Find the sum of the digits of n.","[""8"",""3"",""6"",""9""]","A","C","modiste","","A","61","algLinUCB_0.9","diff-topics","high_school_mathematics","The following are multiple choice questions about high_school_mathematics.
Colton and his dad bought a gallon of paint that cost $13. They also bought 2 brushes that cost $9 each. What was the total cost, not including tax, of the brushes and the paint they bought?
(A) $22, (B) $24, (C) $31, (D) $35
Answer: C
Solve for y. y – 2 + 3y = 10
(A) 2, (B) 3, (C) 4, (D) 5
Answer: B
Solve 3 over 2 * w = 66.
(A) 33, (B) 44, (C) 88, (D) 99
Answer: B
Write 5.875 as a mixed number or fraction in simplest form.
(A) 5 and 8 over 9, (B) 5 and 7 over 8, (C) 7 over 8, (D) 5 and 87 over 105
Answer: B
Solve the equation 124 = m + 34.
(A) 158, (B) 90, (C) 88, (D) 4,216
Answer: B
Zelma buys p pounds of bananas for 40 cents per pound. She pays the clerk with a twenty-dollar bill. The clerk subtracts the total cost of the bananas from the twenty-dollar bill to determine the amount of change to give Zelma. Which expression represents the amount of change Zelma should receive?
(A) p - 20, (B) 20 - 40p, (C) 20 - 0.40p, (D) 0.40p - 20
Answer: C
Please answer the following question with just the correct option (A, B, C, or D) without any explanation or additional text.
Let n be the product of the two smallest 3-digit prime numbers. Find the sum of the digits of n.
(A) '8', (B) '3', (C) '6', (D) '9'
Answer:","","","","","","","","","","","","","","","","","","","","","",""
"","","","","","","","","","","","","","","","","","","","","","","","","","","","A","","","","","","","","","","","","","","","","","","","","",""
"","","","","","","","","","","","","","","","","","","","","","","","","","","","","false","131","-1","A","true","true","defer","[]","false","0","true","2","{""elementary_mathematics"":[""40/50"",""31/50"",""5/6""],""high_school_mathematics"":[""28/51"",""24/52"",""3/6""],""college_mathematics"":[""22/50"",""27/52"",""2 / 5""]}","{""high_school_mathematics"":false,""college_mathematics"":false,""elementary_mathematics"":false}","You should outsource this problem to a human agent","false","null","null","false","null",""
"image-keyboard-response","25","731080","0.0-4.0-2.6","t6odhfgx819d491","6174b049932ee98236563b51","67b62c430b9240ccd8986e70","67b63795ded013d75ebcb0b0","1","null","","","null","","","Let n be the product of the two smallest 3-digit prime numbers. Find the sum of the digits of n.","[""8"",""3"",""6"",""9""]","A","C","modiste","","A","61","algLinUCB_0.9","diff-topics","high_school_mathematics","The following are multiple choice questions about high_school_mathematics.
Colton and his dad bought a gallon of paint that cost $13. They also bought 2 brushes that cost $9 each. What was the total cost, not including tax, of the brushes and the paint they bought?
(A) $22, (B) $24, (C) $31, (D) $35
Answer: C
Solve for y. y – 2 + 3y = 10
(A) 2, (B) 3, (C) 4, (D) 5
Answer: B
Solve 3 over 2 * w = 66.
(A) 33, (B) 44, (C) 88, (D) 99
Answer: B
Write 5.875 as a mixed number or fraction in simplest form.
(A) 5 and 8 over 9, (B) 5 and 7 over 8, (C) 7 over 8, (D) 5 and 87 over 105
Answer: B
Solve the equation 124 = m + 34.
(A) 158, (B) 90, (C) 88, (D) 4,216
Answer: B
Zelma buys p pounds of bananas for 40 cents per pound. She pays the clerk with a twenty-dollar bill. The clerk subtracts the total cost of the bananas from the twenty-dollar bill to determine the amount of change to give Zelma. Which expression represents the amount of change Zelma should receive?
(A) p - 20, (B) 20 - 40p, (C) 20 - 0.40p, (D) 0.40p - 20
Answer: C
Please answer the following question with just the correct option (A, B, C, or D) without any explanation or additional text.
Let n be the product of the two smallest 3-digit prime numbers. Find the sum of the digits of n.
(A) '8', (B) '3', (C) '6', (D) '9'
Answer:","","","","","","","","","","","","","","","","","","","","","","feedback_imgs/Correct.png"
"call-function","26","731081","0.0-4.0-0.7","t6odhfgx819d491","6174b049932ee98236563b51","67b62c430b9240ccd8986e70","67b63795ded013d75ebcb0b0","1","","","","","","defer","For how many positive integers k does the ordinary decimal representation of the integer k! end in exactly 99 zeros?","[""None"",""One"",""Four"",""Five""]","B","A","modiste","","D","101","algLinUCB_0.9","diff-topics","college_mathematics","The following are multiple choice questions about high_school_mathematics.
Colton and his dad bought a gallon of paint that cost $13. They also bought 2 brushes that cost $9 each. What was the total cost, not including tax, of the brushes and the paint they bought?
(A) $22, (B) $24, (C) $31, (D) $35
Answer: C
Solve for y. y – 2 + 3y = 10
(A) 2, (B) 3, (C) 4, (D) 5
Answer: B
Solve 3 over 2 * w = 66.
(A) 33, (B) 44, (C) 88, (D) 99
Answer: B
Write 5.875 as a mixed number or fraction in simplest form.
(A) 5 and 8 over 9, (B) 5 and 7 over 8, (C) 7 over 8, (D) 5 and 87 over 105
Answer: B
Solve the equation 124 = m + 34.
(A) 158, (B) 90, (C) 88, (D) 4,216
Answer: B
Zelma buys p pounds of bananas for 40 cents per pound. She pays the clerk with a twenty-dollar bill. The clerk subtracts the total cost of the bananas from the twenty-dollar bill to determine the amount of change to give Zelma. Which expression represents the amount of change Zelma should receive?
(A) p - 20, (B) 20 - 40p, (C) 20 - 0.40p, (D) 0.40p - 20
Answer: C
Please answer the following question with just the correct option (A, B, C, or D) without any explanation or additional text.
For how many positive integers k does the ordinary decimal representation of the integer k! end in exactly 99 zeros?
(A) 'None', (B) 'One', (C) 'Four', (D) 'Five'
Answer:","","","","","","","","","","","","true","2","","","","","","","","",""
"survey-html-form","27","747134","0.0-4.0-1.7","t6odhfgx819d491","6174b049932ee98236563b51","67b62c430b9240ccd8986e70","67b63795ded013d75ebcb0b0","1","16051.299999998882","","","{""mcAnswer"":""B""}","","","For how many positive integers k does the ordinary decimal representation of the integer k! end in exactly 99 zeros?","[""None"",""One"",""Four"",""Five""]","B","A","modiste","","D","101","algLinUCB_0.9","diff-topics","college_mathematics","The following are multiple choice questions about high_school_mathematics.
Colton and his dad bought a gallon of paint that cost $13. They also bought 2 brushes that cost $9 each. What was the total cost, not including tax, of the brushes and the paint they bought?
(A) $22, (B) $24, (C) $31, (D) $35
Answer: C
Solve for y. y – 2 + 3y = 10
(A) 2, (B) 3, (C) 4, (D) 5
Answer: B
Solve 3 over 2 * w = 66.
(A) 33, (B) 44, (C) 88, (D) 99
Answer: B
Write 5.875 as a mixed number or fraction in simplest form.
(A) 5 and 8 over 9, (B) 5 and 7 over 8, (C) 7 over 8, (D) 5 and 87 over 105
Answer: B
Solve the equation 124 = m + 34.
(A) 158, (B) 90, (C) 88, (D) 4,216
Answer: B
Zelma buys p pounds of bananas for 40 cents per pound. She pays the clerk with a twenty-dollar bill. The clerk subtracts the total cost of the bananas from the twenty-dollar bill to determine the amount of change to give Zelma. Which expression represents the amount of change Zelma should receive?
(A) p - 20, (B) 20 - 40p, (C) 20 - 0.40p, (D) 0.40p - 20
Answer: C
Please answer the following question with just the correct option (A, B, C, or D) without any explanation or additional text.
For how many positive integers k does the ordinary decimal representation of the integer k! end in exactly 99 zeros?
(A) 'None', (B) 'One', (C) 'Four', (D) 'Five'
Answer:","","","","","","","","","","","","","","","","","","","","","",""
"","","","","","","","","","","","","","","","","","","","","","","","","","","","B","","","","","","","","","","","","","","","","","","","","",""
"","","","","","","","","","","","","","","","","","","","","","","","","","","","","false","128","-1","B","false","false","defer","[]","false","0","true","2","{""elementary_mathematics"":[""40/50"",""31/50"",""5/6""],""high_school_mathematics"":[""28/51"",""24/52"",""3/6""],""college_mathematics"":[""22/50"",""27/53"",""2 / 5""]}","{""high_school_mathematics"":false,""college_mathematics"":false,""elementary_mathematics"":false}","You should outsource this problem to the AI agent","false","null","true","null","null",""
"image-keyboard-response","28","748645","0.0-4.0-2.7","t6odhfgx819d491","6174b049932ee98236563b51","67b62c430b9240ccd8986e70","67b63795ded013d75ebcb0b0","1","null","","","null","","","For how many positive integers k does the ordinary decimal representation of the integer k! end in exactly 99 zeros?","[""None"",""One"",""Four"",""Five""]","B","A","modiste","","D","101","algLinUCB_0.9","diff-topics","college_mathematics","The following are multiple choice questions about high_school_mathematics.
Colton and his dad bought a gallon of paint that cost $13. They also bought 2 brushes that cost $9 each. What was the total cost, not including tax, of the brushes and the paint they bought?
(A) $22, (B) $24, (C) $31, (D) $35
Answer: C
Solve for y. y – 2 + 3y = 10
(A) 2, (B) 3, (C) 4, (D) 5
Answer: B
Solve 3 over 2 * w = 66.
(A) 33, (B) 44, (C) 88, (D) 99
Answer: B
Write 5.875 as a mixed number or fraction in simplest form.
(A) 5 and 8 over 9, (B) 5 and 7 over 8, (C) 7 over 8, (D) 5 and 87 over 105
Answer: B
Solve the equation 124 = m + 34.
(A) 158, (B) 90, (C) 88, (D) 4,216
Answer: B
Zelma buys p pounds of bananas for 40 cents per pound. She pays the clerk with a twenty-dollar bill. The clerk subtracts the total cost of the bananas from the twenty-dollar bill to determine the amount of change to give Zelma. Which expression represents the amount of change Zelma should receive?
(A) p - 20, (B) 20 - 40p, (C) 20 - 0.40p, (D) 0.40p - 20
Answer: C
Please answer the following question with just the correct option (A, B, C, or D) without any explanation or additional text.
For how many positive integers k does the ordinary decimal representation of the integer k! end in exactly 99 zeros?
(A) 'None', (B) 'One', (C) 'Four', (D) 'Five'
Answer:","","","","","","","","","","","","","","","","","","","","","","feedback_imgs/Incorrect.png"
"call-function","29","748645","0.0-4.0-0.8","t6odhfgx819d491","6174b049932ee98236563b51","67b62c430b9240ccd8986e70","67b63795ded013d75ebcb0b0","1","","","","","","defer","−4 +  ( −3 )=","[""−7"",""−1"",""1"",""7""]","A","A","modiste","","A","82","algLinUCB_0.9","diff-topics","elementary_mathematics","The following are multiple choice questions about high_school_mathematics.
Colton and his dad bought a gallon of paint that cost $13. They also bought 2 brushes that cost $9 each. What was the total cost, not including tax, of the brushes and the paint they bought?
(A) $22, (B) $24, (C) $31, (D) $35
Answer: C
Solve for y. y – 2 + 3y = 10
(A) 2, (B) 3, (C) 4, (D) 5
Answer: B
Solve 3 over 2 * w = 66.
(A) 33, (B) 44, (C) 88, (D) 99
Answer: B
Write 5.875 as a mixed number or fraction in simplest form.
(A) 5 and 8 over 9, (B) 5 and 7 over 8, (C) 7 over 8, (D) 5 and 87 over 105
Answer: B
Solve the equation 124 = m + 34.
(A) 158, (B) 90, (C) 88, (D) 4,216
Answer: B
Zelma buys p pounds of bananas for 40 cents per pound. She pays the clerk with a twenty-dollar bill. The clerk subtracts the total cost of the bananas from the twenty-dollar bill to determine the amount of change to give Zelma. Which expression represents the amount of change Zelma should receive?
(A) p - 20, (B) 20 - 40p, (C) 20 - 0.40p, (D) 0.40p - 20
Answer: C
Please answer the following question with just the correct option (A, B, C, or D) without any explanation or additional text.
−4 +  ( −3 )=
(A) '−7', (B) '−1', (C) '1', (D) '7'
Answer:","","","","","","","","","","","","","","","","","","","","","",""
"survey-html-form","30","768096","0.0-4.0-1.8","t6odhfgx819d491","6174b049932ee98236563b51","67b62c430b9240ccd8986e70","67b63795ded013d75ebcb0b0","1","19461.400000000373","","","{""mcAnswer"":""A""}","","","−4 +  ( −3 )=","[""−7"",""−1"",""1"",""7""]","A","A","modiste","","A","82","algLinUCB_0.9","diff-topics","elementary_mathematics","The following are multiple choice questions about high_school_mathematics.
Colton and his dad bought a gallon of paint that cost $13. They also bought 2 brushes that cost $9 each. What was the total cost, not including tax, of the brushes and the paint they bought?
(A) $22, (B) $24, (C) $31, (D) $35
Answer: C
Solve for y. y – 2 + 3y = 10
(A) 2, (B) 3, (C) 4, (D) 5
Answer: B
Solve 3 over 2 * w = 66.
(A) 33, (B) 44, (C) 88, (D) 99
Answer: B
Write 5.875 as a mixed number or fraction in simplest form.
(A) 5 and 8 over 9, (B) 5 and 7 over 8, (C) 7 over 8, (D) 5 and 87 over 105
Answer: B
Solve the equation 124 = m + 34.
(A) 158, (B) 90, (C) 88, (D) 4,216
Answer: B
Zelma buys p pounds of bananas for 40 cents per pound. She pays the clerk with a twenty-dollar bill. The clerk subtracts the total cost of the bananas from the twenty-dollar bill to determine the amount of change to give Zelma. Which expression represents the amount of change Zelma should receive?
(A) p - 20, (B) 20 - 40p, (C) 20 - 0.40p, (D) 0.40p - 20
Answer: C
Please answer the following question with just the correct option (A, B, C, or D) without any explanation or additional text.
−4 +  ( −3 )=
(A) '−7', (B) '−1', (C) '1', (D) '7'
Answer:","","","","","","","","","","","","","","","","","","","","","",""
"","","","","","","","","","","","","","","","","","","","","","","","","","","","A","","","","","","","","","","","","","","","","","","","","",""
"","","","","","","","","","","","","","","","","","","","","","","","","","","","","false","138","-1","A","true","true","defer","[]","false","0","false","0","{""elementary_mathematics"":[""40/50"",""31/50"",""6/7""],""high_school_mathematics"":[""28/51"",""24/52"",""3/6""],""college_mathematics"":[""22/50"",""27/53"",""2 / 5""]}","{""high_school_mathematics"":false,""college_mathematics"":false,""elementary_mathematics"":false}","You should attempt this problem by yourself","null","null","null","null","true",""
"image-keyboard-response","31","769613","0.0-4.0-2.8","t6odhfgx819d491","6174b049932ee98236563b51","67b62c430b9240ccd8986e70","67b63795ded013d75ebcb0b0","1","null","","","null","","","−4 +  ( −3 )=","[""−7"",""−1"",""1"",""7""]","A","A","modiste","","A","82","algLinUCB_0.9","diff-topics","elementary_mathematics","The following are multiple choice questions about high_school_mathematics.
Colton and his dad bought a gallon of paint that cost $13. They also bought 2 brushes that cost $9 each. What was the total cost, not including tax, of the brushes and the paint they bought?
(A) $22, (B) $24, (C) $31, (D) $35
Answer: C
Solve for y. y – 2 + 3y = 10
(A) 2, (B) 3, (C) 4, (D) 5
Answer: B
Solve 3 over 2 * w = 66.
(A) 33, (B) 44, (C) 88, (D) 99
Answer: B
Write 5.875 as a mixed number or fraction in simplest form.
(A) 5 and 8 over 9, (B) 5 and 7 over 8, (C) 7 over 8, (D) 5 and 87 over 105
Answer: B
Solve the equation 124 = m + 34.
(A) 158, (B) 90, (C) 88, (D) 4,216
Answer: B
Zelma buys p pounds of bananas for 40 cents per pound. She pays the clerk with a twenty-dollar bill. The clerk subtracts the total cost of the bananas from the twenty-dollar bill to determine the amount of change to give Zelma. Which expression represents the amount of change Zelma should receive?
(A) p - 20, (B) 20 - 40p, (C) 20 - 0.40p, (D) 0.40p - 20
Answer: C
Please answer the following question with just the correct option (A, B, C, or D) without any explanation or additional text.
−4 +  ( −3 )=
(A) '−7', (B) '−1', (C) '1', (D) '7'
Answer:","","","","","","","","","","","","","","","","","","","","","","feedback_imgs/Correct.png"
"call-function","32","769614","0.0-4.0-0.9","t6odhfgx819d491","6174b049932ee98236563b51","67b62c430b9240ccd8986e70","67b63795ded013d75ebcb0b0","1","","","","","","defer","What is the largest order of an element in the group of permutations of 5 objects?","[""5"",""6"",""12"",""15""]","A","B","modiste","","B","109","algLinUCB_0.9","diff-topics","college_mathematics","The following are multiple choice questions about high_school_mathematics.
Colton and his dad bought a gallon of paint that cost $13. They also bought 2 brushes that cost $9 each. What was the total cost, not including tax, of the brushes and the paint they bought?
(A) $22, (B) $24, (C) $31, (D) $35
Answer: C
Solve for y. y – 2 + 3y = 10
(A) 2, (B) 3, (C) 4, (D) 5
Answer: B
Solve 3 over 2 * w = 66.
(A) 33, (B) 44, (C) 88, (D) 99
Answer: B
Write 5.875 as a mixed number or fraction in simplest form.
(A) 5 and 8 over 9, (B) 5 and 7 over 8, (C) 7 over 8, (D) 5 and 87 over 105
Answer: B
Solve the equation 124 = m + 34.
(A) 158, (B) 90, (C) 88, (D) 4,216
Answer: B
Zelma buys p pounds of bananas for 40 cents per pound. She pays the clerk with a twenty-dollar bill. The clerk subtracts the total cost of the bananas from the twenty-dollar bill to determine the amount of change to give Zelma. Which expression represents the amount of change Zelma should receive?
(A) p - 20, (B) 20 - 40p, (C) 20 - 0.40p, (D) 0.40p - 20
Answer: C
Please answer the following question with just the correct option (A, B, C, or D) without any explanation or additional text.
What is the largest order of an element in the group of permutations of 5 objects?
(A) '5', (B) '6', (C) '12', (D) '15'
Answer:","","","","","","","","","","","","true","2","","","","","","","","",""
"survey-html-form","33","787748","0.0-4.0-1.9","t6odhfgx819d491","6174b049932ee98236563b51","67b62c430b9240ccd8986e70","67b63795ded013d75ebcb0b0","1","18131.299999998882","","","{""mcAnswer"":""A""}","","","What is the largest order of an element in the group of permutations of 5 objects?","[""5"",""6"",""12"",""15""]","A","B","modiste","","B","109","algLinUCB_0.9","diff-topics","college_mathematics","The following are multiple choice questions about high_school_mathematics.
Colton and his dad bought a gallon of paint that cost $13. They also bought 2 brushes that cost $9 each. What was the total cost, not including tax, of the brushes and the paint they bought?
(A) $22, (B) $24, (C) $31, (D) $35
Answer: C
Solve for y. y – 2 + 3y = 10
(A) 2, (B) 3, (C) 4, (D) 5
Answer: B
Solve 3 over 2 * w = 66.
(A) 33, (B) 44, (C) 88, (D) 99
Answer: B
Write 5.875 as a mixed number or fraction in simplest form.
(A) 5 and 8 over 9, (B) 5 and 7 over 8, (C) 7 over 8, (D) 5 and 87 over 105
Answer: B
Solve the equation 124 = m + 34.
(A) 158, (B) 90, (C) 88, (D) 4,216
Answer: B
Zelma buys p pounds of bananas for 40 cents per pound. She pays the clerk with a twenty-dollar bill. The clerk subtracts the total cost of the bananas from the twenty-dollar bill to determine the amount of change to give Zelma. Which expression represents the amount of change Zelma should receive?
(A) p - 20, (B) 20 - 40p, (C) 20 - 0.40p, (D) 0.40p - 20
Answer: C
Please answer the following question with just the correct option (A, B, C, or D) without any explanation or additional text.
What is the largest order of an element in the group of permutations of 5 objects?
(A) '5', (B) '6', (C) '12', (D) '15'
Answer:","","","","","","","","","","","","","","","","","","","","","",""
"","","","","","","","","","","","","","","","","","","","","","","","","","","","A","","","","","","","","","","","","","","","","","","","","",""
"","","","","","","","","","","","","","","","","","","","","","","","","","","","","false","135","-1","A","false","false","defer","[]","false","0","true","2","{""elementary_mathematics"":[""40/50"",""31/50"",""6/7""],""high_school_mathematics"":[""28/51"",""24/52"",""3/6""],""college_mathematics"":[""22/50"",""27/54"",""2 / 5""]}","{""high_school_mathematics"":false,""college_mathematics"":false,""elementary_mathematics"":false}","You should outsource this problem to the AI agent","false","null","true","null","null",""
"image-keyboard-response","34","789269","0.0-4.0-2.9","t6odhfgx819d491","6174b049932ee98236563b51","67b62c430b9240ccd8986e70","67b63795ded013d75ebcb0b0","1","null","","","null","","","What is the largest order of an element in the group of permutations of 5 objects?","[""5"",""6"",""12"",""15""]","A","B","modiste","","B","109","algLinUCB_0.9","diff-topics","college_mathematics","The following are multiple choice questions about high_school_mathematics.
Colton and his dad bought a gallon of paint that cost $13. They also bought 2 brushes that cost $9 each. What was the total cost, not including tax, of the brushes and the paint they bought?
(A) $22, (B) $24, (C) $31, (D) $35
Answer: C
Solve for y. y – 2 + 3y = 10
(A) 2, (B) 3, (C) 4, (D) 5
Answer: B
Solve 3 over 2 * w = 66.
(A) 33, (B) 44, (C) 88, (D) 99
Answer: B
Write 5.875 as a mixed number or fraction in simplest form.
(A) 5 and 8 over 9, (B) 5 and 7 over 8, (C) 7 over 8, (D) 5 and 87 over 105
Answer: B
Solve the equation 124 = m + 34.
(A) 158, (B) 90, (C) 88, (D) 4,216
Answer: B
Zelma buys p pounds of bananas for 40 cents per pound. She pays the clerk with a twenty-dollar bill. The clerk subtracts the total cost of the bananas from the twenty-dollar bill to determine the amount of change to give Zelma. Which expression represents the amount of change Zelma should receive?
(A) p - 20, (B) 20 - 40p, (C) 20 - 0.40p, (D) 0.40p - 20
Answer: C
Please answer the following question with just the correct option (A, B, C, or D) without any explanation or additional text.
What is the largest order of an element in the group of permutations of 5 objects?
(A) '5', (B) '6', (C) '12', (D) '15'
Answer:","","","","","","","","","","","","","","","","","","","","","","feedback_imgs/Incorrect.png"
"call-function","35","789269","0.0-4.0-0.10","t6odhfgx819d491","6174b049932ee98236563b51","67b62c430b9240ccd8986e70","67b63795ded013d75ebcb0b0","1","","","","","","defer","Let C be the circle in the yz-plane whose equation is (y - 3)^2 + z^2 = 1. If C is revolved around the z-axis, the surface generated is a torus. What is the equation of this torus?","[""x^2 + y^2 + z^2 + 8 = 6y"",""(x^2 + y^2 + z^2)^2 = 8 + 36(x^2 + z^2)"",""(x^2 + y^2 + z^2 + 8)^2 = 36(x^2 + z^2)"",""(x^2 + y^2 + z^2 + 8)^2 = 36(x^2 + y^2)""]","B","B","modiste","","D","115","algLinUCB_0.9","diff-topics","college_mathematics","The following are multiple choice questions about high_school_mathematics.
Colton and his dad bought a gallon of paint that cost $13. They also bought 2 brushes that cost $9 each. What was the total cost, not including tax, of the brushes and the paint they bought?
(A) $22, (B) $24, (C) $31, (D) $35
Answer: C
Solve for y. y – 2 + 3y = 10
(A) 2, (B) 3, (C) 4, (D) 5
Answer: B
Solve 3 over 2 * w = 66.
(A) 33, (B) 44, (C) 88, (D) 99
Answer: B
Write 5.875 as a mixed number or fraction in simplest form.
(A) 5 and 8 over 9, (B) 5 and 7 over 8, (C) 7 over 8, (D) 5 and 87 over 105
Answer: B
Solve the equation 124 = m + 34.
(A) 158, (B) 90, (C) 88, (D) 4,216
Answer: B
Zelma buys p pounds of bananas for 40 cents per pound. She pays the clerk with a twenty-dollar bill. The clerk subtracts the total cost of the bananas from the twenty-dollar bill to determine the amount of change to give Zelma. Which expression represents the amount of change Zelma should receive?
(A) p - 20, (B) 20 - 40p, (C) 20 - 0.40p, (D) 0.40p - 20
Answer: C
Please answer the following question with just the correct option (A, B, C, or D) without any explanation or additional text.
Let C be the circle in the yz-plane whose equation is (y - 3)^2 + z^2 = 1. If C is revolved around the z-axis, the surface generated is a torus. What is the equation of this torus?
(A) 'x^2 + y^2 + z^2 + 8 = 6y', (B) '(x^2 + y^2 + z^2)^2 = 8 + 36(x^2 + z^2)', (C) '(x^2 + y^2 + z^2 + 8)^2 = 36(x^2 + z^2)', (D) '(x^2 + y^2 + z^2 + 8)^2 = 36(x^2 + y^2)'
Answer:","","","","","","","","","","true","2","","","","","","","","","","",""
"survey-html-form","36","1441190","0.0-4.0-1.10","t6odhfgx819d491","6174b049932ee98236563b51","67b62c430b9240ccd8986e70","67b63795ded013d75ebcb0b0","1","651914.2999999989","","","{""mcAnswer"":""B""}","","","Let C be the circle in the yz-plane whose equation is (y - 3)^2 + z^2 = 1. If C is revolved around the z-axis, the surface generated is a torus. What is the equation of this torus?","[""x^2 + y^2 + z^2 + 8 = 6y"",""(x^2 + y^2 + z^2)^2 = 8 + 36(x^2 + z^2)"",""(x^2 + y^2 + z^2 + 8)^2 = 36(x^2 + z^2)"",""(x^2 + y^2 + z^2 + 8)^2 = 36(x^2 + y^2)""]","B","B","modiste","","D","115","algLinUCB_0.9","diff-topics","college_mathematics","The following are multiple choice questions about high_school_mathematics.
Colton and his dad bought a gallon of paint that cost $13. They also bought 2 brushes that cost $9 each. What was the total cost, not including tax, of the brushes and the paint they bought?
(A) $22, (B) $24, (C) $31, (D) $35
Answer: C
Solve for y. y – 2 + 3y = 10
(A) 2, (B) 3, (C) 4, (D) 5
Answer: B
Solve 3 over 2 * w = 66.
(A) 33, (B) 44, (C) 88, (D) 99
Answer: B
Write 5.875 as a mixed number or fraction in simplest form.
(A) 5 and 8 over 9, (B) 5 and 7 over 8, (C) 7 over 8, (D) 5 and 87 over 105
Answer: B
Solve the equation 124 = m + 34.
(A) 158, (B) 90, (C) 88, (D) 4,216
Answer: B
Zelma buys p pounds of bananas for 40 cents per pound. She pays the clerk with a twenty-dollar bill. The clerk subtracts the total cost of the bananas from the twenty-dollar bill to determine the amount of change to give Zelma. Which expression represents the amount of change Zelma should receive?
(A) p - 20, (B) 20 - 40p, (C) 20 - 0.40p, (D) 0.40p - 20
Answer: C
Please answer the following question with just the correct option (A, B, C, or D) without any explanation or additional text.
Let C be the circle in the yz-plane whose equation is (y - 3)^2 + z^2 = 1. If C is revolved around the z-axis, the surface generated is a torus. What is the equation of this torus?
(A) 'x^2 + y^2 + z^2 + 8 = 6y', (B) '(x^2 + y^2 + z^2)^2 = 8 + 36(x^2 + z^2)', (C) '(x^2 + y^2 + z^2 + 8)^2 = 36(x^2 + z^2)', (D) '(x^2 + y^2 + z^2 + 8)^2 = 36(x^2 + y^2)'
Answer:","","","","","","","","","","","","","","","","","","","","","",""
"","","","","","","","","","","","","","","","","","","","","","","","","","","","B","","","","","","","","","","","","","","","","","","","","",""
"","","","","","","","","","","","","","","","","","","","","","","","","","","","","false","128","-1","B","false","false","defer","[]","true","2","false","0","{""elementary_mathematics"":[""40/50"",""31/50"",""6/7""],""high_school_mathematics"":[""28/51"",""24/52"",""3/6""],""college_mathematics"":[""22/51"",""27/54"",""2 / 5""]}","{""high_school_mathematics"":false,""college_mathematics"":false,""elementary_mathematics"":false}","You should outsource this problem to the AI agent","null","false","false","null","null",""
"image-keyboard-response","37","1442701","0.0-4.0-2.10","t6odhfgx819d491","6174b049932ee98236563b51","67b62c430b9240ccd8986e70","67b63795ded013d75ebcb0b0","1","null","","","null","","","Let C be the circle in the yz-plane whose equation is (y - 3)^2 + z^2 = 1. If C is revolved around the z-axis, the surface generated is a torus. What is the equation of this torus?","[""x^2 + y^2 + z^2 + 8 = 6y"",""(x^2 + y^2 + z^2)^2 = 8 + 36(x^2 + z^2)"",""(x^2 + y^2 + z^2 + 8)^2 = 36(x^2 + z^2)"",""(x^2 + y^2 + z^2 + 8)^2 = 36(x^2 + y^2)""]","B","B","modiste","","D","115","algLinUCB_0.9","diff-topics","college_mathematics","The following are multiple choice questions about high_school_mathematics.
Colton and his dad bought a gallon of paint that cost $13. They also bought 2 brushes that cost $9 each. What was the total cost, not including tax, of the brushes and the paint they bought?
(A) $22, (B) $24, (C) $31, (D) $35
Answer: C
Solve for y. y – 2 + 3y = 10
(A) 2, (B) 3, (C) 4, (D) 5
Answer: B
Solve 3 over 2 * w = 66.
(A) 33, (B) 44, (C) 88, (D) 99
Answer: B
Write 5.875 as a mixed number or fraction in simplest form.
(A) 5 and 8 over 9, (B) 5 and 7 over 8, (C) 7 over 8, (D) 5 and 87 over 105
Answer: B
Solve the equation 124 = m + 34.
(A) 158, (B) 90, (C) 88, (D) 4,216
Answer: B
Zelma buys p pounds of bananas for 40 cents per pound. She pays the clerk with a twenty-dollar bill. The clerk subtracts the total cost of the bananas from the twenty-dollar bill to determine the amount of change to give Zelma. Which expression represents the amount of change Zelma should receive?
(A) p - 20, (B) 20 - 40p, (C) 20 - 0.40p, (D) 0.40p - 20
Answer: C
Please answer the following question with just the correct option (A, B, C, or D) without any explanation or additional text.
Let C be the circle in the yz-plane whose equation is (y - 3)^2 + z^2 = 1. If C is revolved around the z-axis, the surface generated is a torus. What is the equation of this torus?
(A) 'x^2 + y^2 + z^2 + 8 = 6y', (B) '(x^2 + y^2 + z^2)^2 = 8 + 36(x^2 + z^2)', (C) '(x^2 + y^2 + z^2 + 8)^2 = 36(x^2 + z^2)', (D) '(x^2 + y^2 + z^2 + 8)^2 = 36(x^2 + y^2)'
Answer:","","","","","","","","","","","","","","","","","","","","","","feedback_imgs/Incorrect.png"
"call-function","38","1442701","0.0-4.0-0.11","t6odhfgx819d491","6174b049932ee98236563b51","67b62c430b9240ccd8986e70","67b63795ded013d75ebcb0b0","1","","","","","","defer","What is the greatest possible area of a triangular region with one vertex at the center of a circle of radius 1 and the other two vertices on the circle?","[""1/2"",""1"",""sqrt(2)"",""pi""]","B","B","modiste","","A","107","algLinUCB_0.9","diff-topics","college_mathematics","The following are multiple choice questions about high_school_mathematics.
Colton and his dad bought a gallon of paint that cost $13. They also bought 2 brushes that cost $9 each. What was the total cost, not including tax, of the brushes and the paint they bought?
(A) $22, (B) $24, (C) $31, (D) $35
Answer: C
Solve for y. y – 2 + 3y = 10
(A) 2, (B) 3, (C) 4, (D) 5
Answer: B
Solve 3 over 2 * w = 66.
(A) 33, (B) 44, (C) 88, (D) 99
Answer: B
Write 5.875 as a mixed number or fraction in simplest form.
(A) 5 and 8 over 9, (B) 5 and 7 over 8, (C) 7 over 8, (D) 5 and 87 over 105
Answer: B
Solve the equation 124 = m + 34.
(A) 158, (B) 90, (C) 88, (D) 4,216
Answer: B
Zelma buys p pounds of bananas for 40 cents per pound. She pays the clerk with a twenty-dollar bill. The clerk subtracts the total cost of the bananas from the twenty-dollar bill to determine the amount of change to give Zelma. Which expression represents the amount of change Zelma should receive?
(A) p - 20, (B) 20 - 40p, (C) 20 - 0.40p, (D) 0.40p - 20
Answer: C
Please answer the following question with just the correct option (A, B, C, or D) without any explanation or additional text.
What is the greatest possible area of a triangular region with one vertex at the center of a circle of radius 1 and the other two vertices on the circle?
(A) '1/2', (B) '1', (C) 'sqrt(2)', (D) 'pi'
Answer:","","","","","","","","","","","","true","2","","","","","","","","",""
"survey-html-form","39","1471810","0.0-4.0-1.11","t6odhfgx819d491","6174b049932ee98236563b51","67b62c430b9240ccd8986e70","67b63795ded013d75ebcb0b0","1","29096.5","","","{""mcAnswer"":""B""}","","","What is the greatest possible area of a triangular region with one vertex at the center of a circle of radius 1 and the other two vertices on the circle?","[""1/2"",""1"",""sqrt(2)"",""pi""]","B","B","modiste","","A","107","algLinUCB_0.9","diff-topics","college_mathematics","The following are multiple choice questions about high_school_mathematics.
Colton and his dad bought a gallon of paint that cost $13. They also bought 2 brushes that cost $9 each. What was the total cost, not including tax, of the brushes and the paint they bought?
(A) $22, (B) $24, (C) $31, (D) $35
Answer: C
Solve for y. y – 2 + 3y = 10
(A) 2, (B) 3, (C) 4, (D) 5
Answer: B
Solve 3 over 2 * w = 66.
(A) 33, (B) 44, (C) 88, (D) 99
Answer: B
Write 5.875 as a mixed number or fraction in simplest form.
(A) 5 and 8 over 9, (B) 5 and 7 over 8, (C) 7 over 8, (D) 5 and 87 over 105
Answer: B
Solve the equation 124 = m + 34.
(A) 158, (B) 90, (C) 88, (D) 4,216
Answer: B
Zelma buys p pounds of bananas for 40 cents per pound. She pays the clerk with a twenty-dollar bill. The clerk subtracts the total cost of the bananas from the twenty-dollar bill to determine the amount of change to give Zelma. Which expression represents the amount of change Zelma should receive?
(A) p - 20, (B) 20 - 40p, (C) 20 - 0.40p, (D) 0.40p - 20
Answer: C
Please answer the following question with just the correct option (A, B, C, or D) without any explanation or additional text.
What is the greatest possible area of a triangular region with one vertex at the center of a circle of radius 1 and the other two vertices on the circle?
(A) '1/2', (B) '1', (C) 'sqrt(2)', (D) 'pi'
Answer:","","","","","","","","","","","","","","","","","","","","","",""
"","","","","","","","","","","","","","","","","","","","","","","","","","","","B","","","","","","","","","","","","","","","","","","","","",""
"","","","","","","","","","","","","","","","","","","","","","","","","","","","","false","125","-1","B","false","false","defer","[]","false","0","true","2","{""elementary_mathematics"":[""40/50"",""31/50"",""6/7""],""high_school_mathematics"":[""28/51"",""24/52"",""3/6""],""college_mathematics"":[""22/51"",""27/55"",""2 / 5""]}","{""high_school_mathematics"":false,""college_mathematics"":false,""elementary_mathematics"":false}","You should outsource this problem to the AI agent","false","null","true","null","null",""
"image-keyboard-response","40","1473317","0.0-4.0-2.11","t6odhfgx819d491","6174b049932ee98236563b51","67b62c430b9240ccd8986e70","67b63795ded013d75ebcb0b0","1","null","","","null","","","What is the greatest possible area of a triangular region with one vertex at the center of a circle of radius 1 and the other two vertices on the circle?","[""1/2"",""1"",""sqrt(2)"",""pi""]","B","B","modiste","","A","107","algLinUCB_0.9","diff-topics","college_mathematics","The following are multiple choice questions about high_school_mathematics.
Colton and his dad bought a gallon of paint that cost $13. They also bought 2 brushes that cost $9 each. What was the total cost, not including tax, of the brushes and the paint they bought?
(A) $22, (B) $24, (C) $31, (D) $35
Answer: C
Solve for y. y – 2 + 3y = 10
(A) 2, (B) 3, (C) 4, (D) 5
Answer: B
Solve 3 over 2 * w = 66.
(A) 33, (B) 44, (C) 88, (D) 99
Answer: B
Write 5.875 as a mixed number or fraction in simplest form.
(A) 5 and 8 over 9, (B) 5 and 7 over 8, (C) 7 over 8, (D) 5 and 87 over 105
Answer: B
Solve the equation 124 = m + 34.
(A) 158, (B) 90, (C) 88, (D) 4,216
Answer: B
Zelma buys p pounds of bananas for 40 cents per pound. She pays the clerk with a twenty-dollar bill. The clerk subtracts the total cost of the bananas from the twenty-dollar bill to determine the amount of change to give Zelma. Which expression represents the amount of change Zelma should receive?
(A) p - 20, (B) 20 - 40p, (C) 20 - 0.40p, (D) 0.40p - 20
Answer: C
Please answer the following question with just the correct option (A, B, C, or D) without any explanation or additional text.
What is the greatest possible area of a triangular region with one vertex at the center of a circle of radius 1 and the other two vertices on the circle?
(A) '1/2', (B) '1', (C) 'sqrt(2)', (D) 'pi'
Answer:","","","","","","","","","","","","","","","","","","","","","","feedback_imgs/Incorrect.png"
"call-function","41","1473317","0.0-4.0-0.12","t6odhfgx819d491","6174b049932ee98236563b51","67b62c430b9240ccd8986e70","67b63795ded013d75ebcb0b0","1","","","","","","defer","How many positive integers are factors of 120 and also factors of 40?","[""4"",""8"",""2"",""1""]","C","A","modiste","","B","68","algLinUCB_0.9","diff-topics","high_school_mathematics","The following are multiple choice questions about high_school_mathematics.
Colton and his dad bought a gallon of paint that cost $13. They also bought 2 brushes that cost $9 each. What was the total cost, not including tax, of the brushes and the paint they bought?
(A) $22, (B) $24, (C) $31, (D) $35
Answer: C
Solve for y. y – 2 + 3y = 10
(A) 2, (B) 3, (C) 4, (D) 5
Answer: B
Solve 3 over 2 * w = 66.
(A) 33, (B) 44, (C) 88, (D) 99
Answer: B
Write 5.875 as a mixed number or fraction in simplest form.
(A) 5 and 8 over 9, (B) 5 and 7 over 8, (C) 7 over 8, (D) 5 and 87 over 105
Answer: B
Solve the equation 124 = m + 34.
(A) 158, (B) 90, (C) 88, (D) 4,216
Answer: B
Zelma buys p pounds of bananas for 40 cents per pound. She pays the clerk with a twenty-dollar bill. The clerk subtracts the total cost of the bananas from the twenty-dollar bill to determine the amount of change to give Zelma. Which expression represents the amount of change Zelma should receive?
(A) p - 20, (B) 20 - 40p, (C) 20 - 0.40p, (D) 0.40p - 20
Answer: C
Please answer the following question with just the correct option (A, B, C, or D) without any explanation or additional text.
How many positive integers are factors of 120 and also factors of 40?
(A) '4', (B) '8', (C) '2', (D) '1'
Answer:","","","","","","","","","","","","","","","","","","","","","",""
"survey-html-form","42","1673556","0.0-4.0-1.12","t6odhfgx819d491","6174b049932ee98236563b51","67b62c430b9240ccd8986e70","67b63795ded013d75ebcb0b0","1","200239.40000000037","","","{""mcAnswer"":""A""}","","","How many positive integers are factors of 120 and also factors of 40?","[""4"",""8"",""2"",""1""]","C","A","modiste","","B","68","algLinUCB_0.9","diff-topics","high_school_mathematics","The following are multiple choice questions about high_school_mathematics.
Colton and his dad bought a gallon of paint that cost $13. They also bought 2 brushes that cost $9 each. What was the total cost, not including tax, of the brushes and the paint they bought?
(A) $22, (B) $24, (C) $31, (D) $35
Answer: C
Solve for y. y – 2 + 3y = 10
(A) 2, (B) 3, (C) 4, (D) 5
Answer: B
Solve 3 over 2 * w = 66.
(A) 33, (B) 44, (C) 88, (D) 99
Answer: B
Write 5.875 as a mixed number or fraction in simplest form.
(A) 5 and 8 over 9, (B) 5 and 7 over 8, (C) 7 over 8, (D) 5 and 87 over 105
Answer: B
Solve the equation 124 = m + 34.
(A) 158, (B) 90, (C) 88, (D) 4,216
Answer: B
Zelma buys p pounds of bananas for 40 cents per pound. She pays the clerk with a twenty-dollar bill. The clerk subtracts the total cost of the bananas from the twenty-dollar bill to determine the amount of change to give Zelma. Which expression represents the amount of change Zelma should receive?
(A) p - 20, (B) 20 - 40p, (C) 20 - 0.40p, (D) 0.40p - 20
Answer: C
Please answer the following question with just the correct option (A, B, C, or D) without any explanation or additional text.
How many positive integers are factors of 120 and also factors of 40?
(A) '4', (B) '8', (C) '2', (D) '1'
Answer:","","","","","","","","","","","","","","","","","","","","","",""
"","","","","","","","","","","","","","","","","","","","","","","","","","","","A","","","","","","","","","","","","","","","","","","","","",""
"","","","","","","","","","","","","","","","","","","","","","","","","","","","","false","125","-1","C","false","false","defer","[]","false","0","false","0","{""elementary_mathematics"":[""40/50"",""31/50"",""6/7""],""high_school_mathematics"":[""28/51"",""24/52"",""3/7""],""college_mathematics"":[""22/51"",""27/55"",""2 / 5""]}","{""high_school_mathematics"":true,""college_mathematics"":false,""elementary_mathematics"":false}","You should outsource this problem to a human agent","null","null","null","false","null",""
"image-keyboard-response","43","1675072","0.0-4.0-2.12","t6odhfgx819d491","6174b049932ee98236563b51","67b62c430b9240ccd8986e70","67b63795ded013d75ebcb0b0","1","null","","","null","","","How many positive integers are factors of 120 and also factors of 40?","[""4"",""8"",""2"",""1""]","C","A","modiste","","B","68","algLinUCB_0.9","diff-topics","high_school_mathematics","The following are multiple choice questions about high_school_mathematics.
Colton and his dad bought a gallon of paint that cost $13. They also bought 2 brushes that cost $9 each. What was the total cost, not including tax, of the brushes and the paint they bought?
(A) $22, (B) $24, (C) $31, (D) $35
Answer: C
Solve for y. y – 2 + 3y = 10
(A) 2, (B) 3, (C) 4, (D) 5
Answer: B
Solve 3 over 2 * w = 66.
(A) 33, (B) 44, (C) 88, (D) 99
Answer: B
Write 5.875 as a mixed number or fraction in simplest form.
(A) 5 and 8 over 9, (B) 5 and 7 over 8, (C) 7 over 8, (D) 5 and 87 over 105
Answer: B
Solve the equation 124 = m + 34.
(A) 158, (B) 90, (C) 88, (D) 4,216
Answer: B
Zelma buys p pounds of bananas for 40 cents per pound. She pays the clerk with a twenty-dollar bill. The clerk subtracts the total cost of the bananas from the twenty-dollar bill to determine the amount of change to give Zelma. Which expression represents the amount of change Zelma should receive?
(A) p - 20, (B) 20 - 40p, (C) 20 - 0.40p, (D) 0.40p - 20
Answer: C
Please answer the following question with just the correct option (A, B, C, or D) without any explanation or additional text.
How many positive integers are factors of 120 and also factors of 40?
(A) '4', (B) '8', (C) '2', (D) '1'
Answer:","","","","","","","","","","","","","","","","","","","","","","feedback_imgs/Incorrect.png"
"call-function","44","1675072","0.0-4.0-0.13","t6odhfgx819d491","6174b049932ee98236563b51","67b62c430b9240ccd8986e70","67b63795ded013d75ebcb0b0","1","","","","","","defer","Write 8 and 2 over 4 as an improper fraction in simplest form.","[""17 over 2"",""34 over 4"",""17 over 4"",""19 over 2""]","B","A","modiste","","A","92","algLinUCB_0.9","diff-topics","elementary_mathematics","The following are multiple choice questions about high_school_mathematics.
Colton and his dad bought a gallon of paint that cost $13. They also bought 2 brushes that cost $9 each. What was the total cost, not including tax, of the brushes and the paint they bought?
(A) $22, (B) $24, (C) $31, (D) $35
Answer: C
Solve for y. y – 2 + 3y = 10
(A) 2, (B) 3, (C) 4, (D) 5
Answer: B
Solve 3 over 2 * w = 66.
(A) 33, (B) 44, (C) 88, (D) 99
Answer: B
Write 5.875 as a mixed number or fraction in simplest form.
(A) 5 and 8 over 9, (B) 5 and 7 over 8, (C) 7 over 8, (D) 5 and 87 over 105
Answer: B
Solve the equation 124 = m + 34.
(A) 158, (B) 90, (C) 88, (D) 4,216
Answer: B
Zelma buys p pounds of bananas for 40 cents per pound. She pays the clerk with a twenty-dollar bill. The clerk subtracts the total cost of the bananas from the twenty-dollar bill to determine the amount of change to give Zelma. Which expression represents the amount of change Zelma should receive?
(A) p - 20, (B) 20 - 40p, (C) 20 - 0.40p, (D) 0.40p - 20
Answer: C
Please answer the following question with just the correct option (A, B, C, or D) without any explanation or additional text.
Write 8 and 2 over 4 as an improper fraction in simplest form.
(A) '17 over 2', (B) '34 over 4', (C) '17 over 4', (D) '19 over 2'
Answer:","","","","","","","","","","","","","","","","","","","","","",""
"survey-html-form","45","1723215","0.0-4.0-1.13","t6odhfgx819d491","6174b049932ee98236563b51","67b62c430b9240ccd8986e70","67b63795ded013d75ebcb0b0","1","48149.90000000037","","","{""mcAnswer"":""B""}","","","Write 8 and 2 over 4 as an improper fraction in simplest form.","[""17 over 2"",""34 over 4"",""17 over 4"",""19 over 2""]","B","A","modiste","","A","92","algLinUCB_0.9","diff-topics","elementary_mathematics","The following are multiple choice questions about high_school_mathematics.
Colton and his dad bought a gallon of paint that cost $13. They also bought 2 brushes that cost $9 each. What was the total cost, not including tax, of the brushes and the paint they bought?
(A) $22, (B) $24, (C) $31, (D) $35
Answer: C
Solve for y. y – 2 + 3y = 10
(A) 2, (B) 3, (C) 4, (D) 5
Answer: B
Solve 3 over 2 * w = 66.
(A) 33, (B) 44, (C) 88, (D) 99
Answer: B
Write 5.875 as a mixed number or fraction in simplest form.
(A) 5 and 8 over 9, (B) 5 and 7 over 8, (C) 7 over 8, (D) 5 and 87 over 105
Answer: B
Solve the equation 124 = m + 34.
(A) 158, (B) 90, (C) 88, (D) 4,216
Answer: B
Zelma buys p pounds of bananas for 40 cents per pound. She pays the clerk with a twenty-dollar bill. The clerk subtracts the total cost of the bananas from the twenty-dollar bill to determine the amount of change to give Zelma. Which expression represents the amount of change Zelma should receive?
(A) p - 20, (B) 20 - 40p, (C) 20 - 0.40p, (D) 0.40p - 20
Answer: C
Please answer the following question with just the correct option (A, B, C, or D) without any explanation or additional text.
Write 8 and 2 over 4 as an improper fraction in simplest form.
(A) '17 over 2', (B) '34 over 4', (C) '17 over 4', (D) '19 over 2'
Answer:","","","","","","","","","","","","","","","","","","","","","",""
"","","","","","","","","","","","","","","","","","","","","","","","","","","","B","","","","","","","","","","","","","","","","","","","","",""
"","","","","","","","","","","","","","","","","","","","","","","","","","","","","false","125","-1","B","false","false","defer","[]","false","0","false","0","{""elementary_mathematics"":[""40/50"",""31/50"",""6/8""],""high_school_mathematics"":[""28/51"",""24/52"",""3/7""],""college_mathematics"":[""22/51"",""27/55"",""2 / 5""]}","{""high_school_mathematics"":true,""college_mathematics"":false,""elementary_mathematics"":true}","You should attempt this problem by yourself","null","null","null","null","true",""
"image-keyboard-response","46","1724732","0.0-4.0-2.13","t6odhfgx819d491","6174b049932ee98236563b51","67b62c430b9240ccd8986e70","67b63795ded013d75ebcb0b0","1","null","","","null","","","Write 8 and 2 over 4 as an improper fraction in simplest form.","[""17 over 2"",""34 over 4"",""17 over 4"",""19 over 2""]","B","A","modiste","","A","92","algLinUCB_0.9","diff-topics","elementary_mathematics","The following are multiple choice questions about high_school_mathematics.
Colton and his dad bought a gallon of paint that cost $13. They also bought 2 brushes that cost $9 each. What was the total cost, not including tax, of the brushes and the paint they bought?
(A) $22, (B) $24, (C) $31, (D) $35
Answer: C
Solve for y. y – 2 + 3y = 10
(A) 2, (B) 3, (C) 4, (D) 5
Answer: B
Solve 3 over 2 * w = 66.
(A) 33, (B) 44, (C) 88, (D) 99
Answer: B
Write 5.875 as a mixed number or fraction in simplest form.
(A) 5 and 8 over 9, (B) 5 and 7 over 8, (C) 7 over 8, (D) 5 and 87 over 105
Answer: B
Solve the equation 124 = m + 34.
(A) 158, (B) 90, (C) 88, (D) 4,216
Answer: B
Zelma buys p pounds of bananas for 40 cents per pound. She pays the clerk with a twenty-dollar bill. The clerk subtracts the total cost of the bananas from the twenty-dollar bill to determine the amount of change to give Zelma. Which expression represents the amount of change Zelma should receive?
(A) p - 20, (B) 20 - 40p, (C) 20 - 0.40p, (D) 0.40p - 20
Answer: C
Please answer the following question with just the correct option (A, B, C, or D) without any explanation or additional text.
Write 8 and 2 over 4 as an improper fraction in simplest form.
(A) '17 over 2', (B) '34 over 4', (C) '17 over 4', (D) '19 over 2'
Answer:","","","","","","","","","","","","","","","","","","","","","","feedback_imgs/Incorrect.png"
"call-function","47","1724733","0.0-4.0-0.14","t6odhfgx819d491","6174b049932ee98236563b51","67b62c430b9240ccd8986e70","67b63795ded013d75ebcb0b0","1","","","","","","defer","Find the number that makes the statement true: 0.32 g = _ cg.","[""32"",""3.2"",""3,200"",""320""]","B","A","modiste","","A","85","algLinUCB_0.9","diff-topics","elementary_mathematics","The following are multiple choice questions about high_school_mathematics.
Colton and his dad bought a gallon of paint that cost $13. They also bought 2 brushes that cost $9 each. What was the total cost, not including tax, of the brushes and the paint they bought?
(A) $22, (B) $24, (C) $31, (D) $35
Answer: C
Solve for y. y – 2 + 3y = 10
(A) 2, (B) 3, (C) 4, (D) 5
Answer: B
Solve 3 over 2 * w = 66.
(A) 33, (B) 44, (C) 88, (D) 99
Answer: B
Write 5.875 as a mixed number or fraction in simplest form.
(A) 5 and 8 over 9, (B) 5 and 7 over 8, (C) 7 over 8, (D) 5 and 87 over 105
Answer: B
Solve the equation 124 = m + 34.
(A) 158, (B) 90, (C) 88, (D) 4,216
Answer: B
Zelma buys p pounds of bananas for 40 cents per pound. She pays the clerk with a twenty-dollar bill. The clerk subtracts the total cost of the bananas from the twenty-dollar bill to determine the amount of change to give Zelma. Which expression represents the amount of change Zelma should receive?
(A) p - 20, (B) 20 - 40p, (C) 20 - 0.40p, (D) 0.40p - 20
Answer: C
Please answer the following question with just the correct option (A, B, C, or D) without any explanation or additional text.
Find the number that makes the statement true: 0.32 g = _ cg.
(A) '32', (B) '3.2', (C) '3,200', (D) '320'
Answer:","","","","","","","","","","","","true","2","","","","","","","","",""
"survey-html-form","48","1758760","0.0-4.0-1.14","t6odhfgx819d491","6174b049932ee98236563b51","67b62c430b9240ccd8986e70","67b63795ded013d75ebcb0b0","1","34025.59999999963","","","{""mcAnswer"":""B""}","","","Find the number that makes the statement true: 0.32 g = _ cg.","[""32"",""3.2"",""3,200"",""320""]","B","A","modiste","","A","85","algLinUCB_0.9","diff-topics","elementary_mathematics","The following are multiple choice questions about high_school_mathematics.
Colton and his dad bought a gallon of paint that cost $13. They also bought 2 brushes that cost $9 each. What was the total cost, not including tax, of the brushes and the paint they bought?
(A) $22, (B) $24, (C) $31, (D) $35
Answer: C
Solve for y. y – 2 + 3y = 10
(A) 2, (B) 3, (C) 4, (D) 5
Answer: B
Solve 3 over 2 * w = 66.
(A) 33, (B) 44, (C) 88, (D) 99
Answer: B
Write 5.875 as a mixed number or fraction in simplest form.
(A) 5 and 8 over 9, (B) 5 and 7 over 8, (C) 7 over 8, (D) 5 and 87 over 105
Answer: B
Solve the equation 124 = m + 34.
(A) 158, (B) 90, (C) 88, (D) 4,216
Answer: B
Zelma buys p pounds of bananas for 40 cents per pound. She pays the clerk with a twenty-dollar bill. The clerk subtracts the total cost of the bananas from the twenty-dollar bill to determine the amount of change to give Zelma. Which expression represents the amount of change Zelma should receive?
(A) p - 20, (B) 20 - 40p, (C) 20 - 0.40p, (D) 0.40p - 20
Answer: C
Please answer the following question with just the correct option (A, B, C, or D) without any explanation or additional text.
Find the number that makes the statement true: 0.32 g = _ cg.
(A) '32', (B) '3.2', (C) '3,200', (D) '320'
Answer:","","","","","","","","","","","","","","","","","","","","","",""
"","","","","","","","","","","","","","","","","","","","","","","","","","","","B","","","","","","","","","","","","","","","","","","","","",""
"","","","","","","","","","","","","","","","","","","","","","","","","","","","","false","122","-1","B","false","false","defer","[]","false","0","true","2","{""elementary_mathematics"":[""40/50"",""31/51"",""6/8""],""high_school_mathematics"":[""28/51"",""24/52"",""3/7""],""college_mathematics"":[""22/51"",""27/55"",""2 / 5""]}","{""high_school_mathematics"":true,""college_mathematics"":false,""elementary_mathematics"":false}","You were wrong by yourself on elementary_mathematics last time. You should outsource this problem to a human agent","false","null","null","false","null",""
"image-keyboard-response","49","1760271","0.0-4.0-2.14","t6odhfgx819d491","6174b049932ee98236563b51","67b62c430b9240ccd8986e70","67b63795ded013d75ebcb0b0","1","null","","","null","","","Find the number that makes the statement true: 0.32 g = _ cg.","[""32"",""3.2"",""3,200"",""320""]","B","A","modiste","","A","85","algLinUCB_0.9","diff-topics","elementary_mathematics","The following are multiple choice questions about high_school_mathematics.
Colton and his dad bought a gallon of paint that cost $13. They also bought 2 brushes that cost $9 each. What was the total cost, not including tax, of the brushes and the paint they bought?
(A) $22, (B) $24, (C) $31, (D) $35
Answer: C
Solve for y. y – 2 + 3y = 10
(A) 2, (B) 3, (C) 4, (D) 5
Answer: B
Solve 3 over 2 * w = 66.
(A) 33, (B) 44, (C) 88, (D) 99
Answer: B
Write 5.875 as a mixed number or fraction in simplest form.
(A) 5 and 8 over 9, (B) 5 and 7 over 8, (C) 7 over 8, (D) 5 and 87 over 105
Answer: B
Solve the equation 124 = m + 34.
(A) 158, (B) 90, (C) 88, (D) 4,216
Answer: B
Zelma buys p pounds of bananas for 40 cents per pound. She pays the clerk with a twenty-dollar bill. The clerk subtracts the total cost of the bananas from the twenty-dollar bill to determine the amount of change to give Zelma. Which expression represents the amount of change Zelma should receive?
(A) p - 20, (B) 20 - 40p, (C) 20 - 0.40p, (D) 0.40p - 20
Answer: C
Please answer the following question with just the correct option (A, B, C, or D) without any explanation or additional text.
Find the number that makes the statement true: 0.32 g = _ cg.
(A) '32', (B) '3.2', (C) '3,200', (D) '320'
Answer:","","","","","","","","","","","","","","","","","","","","","","feedback_imgs/Incorrect.png"
"call-function","50","1760271","0.0-4.0-0.15","t6odhfgx819d491","6174b049932ee98236563b51","67b62c430b9240ccd8986e70","67b63795ded013d75ebcb0b0","1","","","","","","defer","S(n) is a statement about positive integers n such that whenever S(k) is true, S(k + 1) must also be true. Furthermore, there exists some positive integer n0 such that S(n0) is not true. Of the following, which is the strongest conclusion that can be drawn?","[""S(n0 + 1) is not true."",""S(n0 - 1) is not true."",""S(n) is not true for any n <= n0"",""S(n) is not true for any n >= n0""]","D","B","modiste","","C","110","algLinUCB_0.9","diff-topics","college_mathematics","The following are multiple choice questions about high_school_mathematics.
Colton and his dad bought a gallon of paint that cost $13. They also bought 2 brushes that cost $9 each. What was the total cost, not including tax, of the brushes and the paint they bought?
(A) $22, (B) $24, (C) $31, (D) $35
Answer: C
Solve for y. y – 2 + 3y = 10
(A) 2, (B) 3, (C) 4, (D) 5
Answer: B
Solve 3 over 2 * w = 66.
(A) 33, (B) 44, (C) 88, (D) 99
Answer: B
Write 5.875 as a mixed number or fraction in simplest form.
(A) 5 and 8 over 9, (B) 5 and 7 over 8, (C) 7 over 8, (D) 5 and 87 over 105
Answer: B
Solve the equation 124 = m + 34.
(A) 158, (B) 90, (C) 88, (D) 4,216
Answer: B
Zelma buys p pounds of bananas for 40 cents per pound. She pays the clerk with a twenty-dollar bill. The clerk subtracts the total cost of the bananas from the twenty-dollar bill to determine the amount of change to give Zelma. Which expression represents the amount of change Zelma should receive?
(A) p - 20, (B) 20 - 40p, (C) 20 - 0.40p, (D) 0.40p - 20
Answer: C
Please answer the following question with just the correct option (A, B, C, or D) without any explanation or additional text.
S(n) is a statement about positive integers n such that whenever S(k) is true, S(k + 1) must also be true. Furthermore, there exists some positive integer n0 such that S(n0) is not true. Of the following, which is the strongest conclusion that can be drawn?
(A) 'S(n0 + 1) is not true.', (B) 'S(n0 - 1) is not true.', (C) 'S(n) is not true for any n <= n0', (D) 'S(n) is not true for any n >= n0'
Answer:","","","","","","","","","","true","2","","","","","","","","","","",""
"survey-html-form","51","1792066","0.0-4.0-1.15","t6odhfgx819d491","6174b049932ee98236563b51","67b62c430b9240ccd8986e70","67b63795ded013d75ebcb0b0","1","31791.900000000373","","","{""mcAnswer"":""B""}","","","S(n) is a statement about positive integers n such that whenever S(k) is true, S(k + 1) must also be true. Furthermore, there exists some positive integer n0 such that S(n0) is not true. Of the following, which is the strongest conclusion that can be drawn?","[""S(n0 + 1) is not true."",""S(n0 - 1) is not true."",""S(n) is not true for any n <= n0"",""S(n) is not true for any n >= n0""]","D","B","modiste","","C","110","algLinUCB_0.9","diff-topics","college_mathematics","The following are multiple choice questions about high_school_mathematics.
Colton and his dad bought a gallon of paint that cost $13. They also bought 2 brushes that cost $9 each. What was the total cost, not including tax, of the brushes and the paint they bought?
(A) $22, (B) $24, (C) $31, (D) $35
Answer: C
Solve for y. y – 2 + 3y = 10
(A) 2, (B) 3, (C) 4, (D) 5
Answer: B
Solve 3 over 2 * w = 66.
(A) 33, (B) 44, (C) 88, (D) 99
Answer: B
Write 5.875 as a mixed number or fraction in simplest form.
(A) 5 and 8 over 9, (B) 5 and 7 over 8, (C) 7 over 8, (D) 5 and 87 over 105
Answer: B
Solve the equation 124 = m + 34.
(A) 158, (B) 90, (C) 88, (D) 4,216
Answer: B
Zelma buys p pounds of bananas for 40 cents per pound. She pays the clerk with a twenty-dollar bill. The clerk subtracts the total cost of the bananas from the twenty-dollar bill to determine the amount of change to give Zelma. Which expression represents the amount of change Zelma should receive?
(A) p - 20, (B) 20 - 40p, (C) 20 - 0.40p, (D) 0.40p - 20
Answer: C
Please answer the following question with just the correct option (A, B, C, or D) without any explanation or additional text.
S(n) is a statement about positive integers n such that whenever S(k) is true, S(k + 1) must also be true. Furthermore, there exists some positive integer n0 such that S(n0) is not true. Of the following, which is the strongest conclusion that can be drawn?
(A) 'S(n0 + 1) is not true.', (B) 'S(n0 - 1) is not true.', (C) 'S(n) is not true for any n <= n0', (D) 'S(n) is not true for any n >= n0'
Answer:","","","","","","","","","","","","","","","","","","","","","",""
"","","","","","","","","","","","","","","","","","","","","","","","","","","","B","","","","","","","","","","","","","","","","","","","","",""
