"trial_type","trial_index","time_elapsed","internal_node_id","subject","prolific_id","study_id","session_id","condition","rt","url","view_history","response","question_order","value","question","options","llm_answer","population_answer","task","subj_id","label","example_id","variant","main_variant","topic","prompt","0","btn_clicked","score","timeToClick","modelPred","humanCorrect","modelCorrect","interfaceType","modelPredDist","human_support_used","human_support_clicks","llm_support_used","llm_support_clicks","recommendation_lists","incorrect_answers_by_category","recommendation","LLM_outsourcing_overridden","human_outsourcing_overridden","ai_orch_agreement","human_orch_agreement","self_orch_agreement","stimulus"
"pavlovia","0","715","0.0-0.0","6gcvdqnh6082gj9","671c727b78c1624a723eade1","67b62c430b9240ccd8986e70","67b632b10db5d521b68c10d7","4","","","","","","","","","","","","","","","","","","","","","","","","","","","","","","","","","","","","","","","",""
"external-html","1","39439","0.0-1.0","6gcvdqnh6082gj9","671c727b78c1624a723eade1","67b62c430b9240ccd8986e70","67b632b10db5d521b68c10d7","4","38606","consent.html","","","","","","","","","","","","","","","","","","","","","","","","","","","","","","","","","","","","","",""
"instructions","2","82832","0.0-2.0-0.0","6gcvdqnh6082gj9","671c727b78c1624a723eade1","67b62c430b9240ccd8986e70","67b632b10db5d521b68c10d7","4","43391.000000000015","","[{""page_index"":0,""viewing_time"":3777},{""page_index"":1,""viewing_time"":1648},{""page_index"":2,""viewing_time"":2618},{""page_index"":3,""viewing_time"":14216},{""page_index"":4,""viewing_time"":9780},{""page_index"":5,""viewing_time"":5002},{""page_index"":6,""viewing_time"":3531},{""page_index"":7,""viewing_time"":2817}]","","","","","","","","","","","","","","","","","","","","","","","","","","","","","","","","","","","","",""
"survey-multi-choice","3","124332","0.0-2.0-1.0","6gcvdqnh6082gj9","671c727b78c1624a723eade1","67b62c430b9240ccd8986e70","67b632b10db5d521b68c10d7","4","41496.000000000015","","","{""Q0"":""The answer to a mutliple choice question."",""Q1"":""Selecting from a dropdown menu.""}","[0,1]","","","","","","","","","","","","","","","","","","","","","","","","","","","","","","","","","","",""
"instructions","4","214386","0.0-2.1-0.1","6gcvdqnh6082gj9","671c727b78c1624a723eade1","67b62c430b9240ccd8986e70","67b632b10db5d521b68c10d7","4","90052","","[{""page_index"":0,""viewing_time"":18976},{""page_index"":1,""viewing_time"":22031},{""page_index"":2,""viewing_time"":34546},{""page_index"":3,""viewing_time"":4434},{""page_index"":4,""viewing_time"":2367.000000000029},{""page_index"":5,""viewing_time"":1765.999999999971},{""page_index"":6,""viewing_time"":1185},{""page_index"":7,""viewing_time"":4747}]","","","","","","","","","","","","","","","","","","","","","","","","","","","","","","","","","","","","",""
"survey-multi-choice","5","229977","0.0-2.1-1.1","6gcvdqnh6082gj9","671c727b78c1624a723eade1","67b62c430b9240ccd8986e70","67b632b10db5d521b68c10d7","4","15589","","","{""Q0"":""The least likely answer to a multiple choice question."",""Q1"":""Clicking on a radio button.""}","[0,1]","","","","","","","","","","","","","","","","","","","","","","","","","","","","","","","","","","",""
"instructions","6","286649","0.0-2.2-0.2","6gcvdqnh6082gj9","671c727b78c1624a723eade1","67b62c430b9240ccd8986e70","67b632b10db5d521b68c10d7","4","56669","","[{""page_index"":0,""viewing_time"":3556},{""page_index"":1,""viewing_time"":649},{""page_index"":2,""viewing_time"":933},{""page_index"":3,""viewing_time"":1017},{""page_index"":2,""viewing_time"":44580},{""page_index"":3,""viewing_time"":1083},{""page_index"":4,""viewing_time"":1133},{""page_index"":5,""viewing_time"":1167},{""page_index"":6,""viewing_time"":917},{""page_index"":7,""viewing_time"":1634}]","","","","","","","","","","","","","","","","","","","","","","","","","","","","","","","","","","","","",""
"survey-multi-choice","7","304373","0.0-2.2-1.2","6gcvdqnh6082gj9","671c727b78c1624a723eade1","67b62c430b9240ccd8986e70","67b632b10db5d521b68c10d7","4","17722","","","{""Q0"":""The answer to a mutliple choice question."",""Q1"":""Clicking on a radio button.""}","[0,1]","","","","","","","","","","","","","","","","","","","","","","","","","","","","","","","","","","",""
"instructions","8","317096","0.0-3.0","6gcvdqnh6082gj9","671c727b78c1624a723eade1","67b62c430b9240ccd8986e70","67b632b10db5d521b68c10d7","4","12720","","[{""page_index"":0,""viewing_time"":12720}]","","","","","","","","","","","","","","","","","","","","","","","","","","","","","","","","","","","","",""
"call-function","9","317098","0.0-4.0-0.0","6gcvdqnh6082gj9","671c727b78c1624a723eade1","67b62c430b9240ccd8986e70","67b632b10db5d521b68c10d7","4","","","","","","defer","Ms. Gutierrez needs to order rope for her gym class of 32 students. Each student will receive a piece of rope that is 5 feet 8 inches long. What is the total length of rope Ms. Gutierrez needs to order for her class?","[""106 feet 8 inches"",""154 feet 8 inches"",""160 feet 8 inches"",""181 feet 4 inches""]","D","D","modiste","","D","275","algLinUCB_0.9","diff-topics","elementary_mathematics","The following are multiple choice questions about high_school_mathematics.
Colton and his dad bought a gallon of paint that cost $13. They also bought 2 brushes that cost $9 each. What was the total cost, not including tax, of the brushes and the paint they bought?
(A) $22, (B) $24, (C) $31, (D) $35
Answer: C
Solve for y. y – 2 + 3y = 10
(A) 2, (B) 3, (C) 4, (D) 5
Answer: B
Solve 3 over 2 * w = 66.
(A) 33, (B) 44, (C) 88, (D) 99
Answer: B
Write 5.875 as a mixed number or fraction in simplest form.
(A) 5 and 8 over 9, (B) 5 and 7 over 8, (C) 7 over 8, (D) 5 and 87 over 105
Answer: B
Solve the equation 124 = m + 34.
(A) 158, (B) 90, (C) 88, (D) 4,216
Answer: B
Zelma buys p pounds of bananas for 40 cents per pound. She pays the clerk with a twenty-dollar bill. The clerk subtracts the total cost of the bananas from the twenty-dollar bill to determine the amount of change to give Zelma. Which expression represents the amount of change Zelma should receive?
(A) p - 20, (B) 20 - 40p, (C) 20 - 0.40p, (D) 0.40p - 20
Answer: C
Please answer the following question with just the correct option (A, B, C, or D) without any explanation or additional text.
Ms. Gutierrez needs to order rope for her gym class of 32 students. Each student will receive a piece of rope that is 5 feet 8 inches long. What is the total length of rope Ms. Gutierrez needs to order for her class?
(A) '106 feet 8 inches', (B) '154 feet 8 inches', (C) '160 feet 8 inches', (D) '181 feet 4 inches'
Answer:","","","","","","","","","","","","","","","","","","","","","",""
"survey-html-form","10","409250","0.0-4.0-1.0","6gcvdqnh6082gj9","671c727b78c1624a723eade1","67b62c430b9240ccd8986e70","67b632b10db5d521b68c10d7","4","92146","","","{""mcAnswer"":""C""}","","","Ms. Gutierrez needs to order rope for her gym class of 32 students. Each student will receive a piece of rope that is 5 feet 8 inches long. What is the total length of rope Ms. Gutierrez needs to order for her class?","[""106 feet 8 inches"",""154 feet 8 inches"",""160 feet 8 inches"",""181 feet 4 inches""]","D","D","modiste","","D","275","algLinUCB_0.9","diff-topics","elementary_mathematics","The following are multiple choice questions about high_school_mathematics.
Colton and his dad bought a gallon of paint that cost $13. They also bought 2 brushes that cost $9 each. What was the total cost, not including tax, of the brushes and the paint they bought?
(A) $22, (B) $24, (C) $31, (D) $35
Answer: C
Solve for y. y – 2 + 3y = 10
(A) 2, (B) 3, (C) 4, (D) 5
Answer: B
Solve 3 over 2 * w = 66.
(A) 33, (B) 44, (C) 88, (D) 99
Answer: B
Write 5.875 as a mixed number or fraction in simplest form.
(A) 5 and 8 over 9, (B) 5 and 7 over 8, (C) 7 over 8, (D) 5 and 87 over 105
Answer: B
Solve the equation 124 = m + 34.
(A) 158, (B) 90, (C) 88, (D) 4,216
Answer: B
Zelma buys p pounds of bananas for 40 cents per pound. She pays the clerk with a twenty-dollar bill. The clerk subtracts the total cost of the bananas from the twenty-dollar bill to determine the amount of change to give Zelma. Which expression represents the amount of change Zelma should receive?
(A) p - 20, (B) 20 - 40p, (C) 20 - 0.40p, (D) 0.40p - 20
Answer: C
Please answer the following question with just the correct option (A, B, C, or D) without any explanation or additional text.
Ms. Gutierrez needs to order rope for her gym class of 32 students. Each student will receive a piece of rope that is 5 feet 8 inches long. What is the total length of rope Ms. Gutierrez needs to order for her class?
(A) '106 feet 8 inches', (B) '154 feet 8 inches', (C) '160 feet 8 inches', (D) '181 feet 4 inches'
Answer:","","","","","","","","","","","","","","","","","","","","","",""
"","","","","","","","","","","","","","","","","","","","","","","","","","","","C","","","","","","","","","","","","","","","","","","","","",""
"","","","","","","","","","","","","","","","","","","","","","","","","","","","","false","100","-1","D","false","true","defer","[]","false","0","false","0","{""elementary_mathematics"":[""40/50"",""31/50"",""4/6""],""high_school_mathematics"":[""27/50"",""22/50"",""3 / 5""],""college_mathematics"":[""22/50"",""26/50"",""2 / 5""]}","{""elementary_mathematics"":true}","You should attempt this problem by yourself","null","null","null","null","true",""
"image-keyboard-response","11","410758","0.0-4.0-2.0","6gcvdqnh6082gj9","671c727b78c1624a723eade1","67b62c430b9240ccd8986e70","67b632b10db5d521b68c10d7","4","null","","","null","","","Ms. Gutierrez needs to order rope for her gym class of 32 students. Each student will receive a piece of rope that is 5 feet 8 inches long. What is the total length of rope Ms. Gutierrez needs to order for her class?","[""106 feet 8 inches"",""154 feet 8 inches"",""160 feet 8 inches"",""181 feet 4 inches""]","D","D","modiste","","D","275","algLinUCB_0.9","diff-topics","elementary_mathematics","The following are multiple choice questions about high_school_mathematics.
Colton and his dad bought a gallon of paint that cost $13. They also bought 2 brushes that cost $9 each. What was the total cost, not including tax, of the brushes and the paint they bought?
(A) $22, (B) $24, (C) $31, (D) $35
Answer: C
Solve for y. y – 2 + 3y = 10
(A) 2, (B) 3, (C) 4, (D) 5
Answer: B
Solve 3 over 2 * w = 66.
(A) 33, (B) 44, (C) 88, (D) 99
Answer: B
Write 5.875 as a mixed number or fraction in simplest form.
(A) 5 and 8 over 9, (B) 5 and 7 over 8, (C) 7 over 8, (D) 5 and 87 over 105
Answer: B
Solve the equation 124 = m + 34.
(A) 158, (B) 90, (C) 88, (D) 4,216
Answer: B
Zelma buys p pounds of bananas for 40 cents per pound. She pays the clerk with a twenty-dollar bill. The clerk subtracts the total cost of the bananas from the twenty-dollar bill to determine the amount of change to give Zelma. Which expression represents the amount of change Zelma should receive?
(A) p - 20, (B) 20 - 40p, (C) 20 - 0.40p, (D) 0.40p - 20
Answer: C
Please answer the following question with just the correct option (A, B, C, or D) without any explanation or additional text.
Ms. Gutierrez needs to order rope for her gym class of 32 students. Each student will receive a piece of rope that is 5 feet 8 inches long. What is the total length of rope Ms. Gutierrez needs to order for her class?
(A) '106 feet 8 inches', (B) '154 feet 8 inches', (C) '160 feet 8 inches', (D) '181 feet 4 inches'
Answer:","","","","","","","","","","","","","","","","","","","","","","feedback_imgs/Incorrect.png"
"call-function","12","410760","0.0-4.0-0.1","6gcvdqnh6082gj9","671c727b78c1624a723eade1","67b62c430b9240ccd8986e70","67b632b10db5d521b68c10d7","4","","","","","","defer","Let f(x) be a function whose graph passes through the origin. If f(2n) = n^2 + f[2(n - 1)] for every integer n, what is the value of f(8)?","[""24"",""30"",""32"",""36""]","C","B","modiste","","B","281","algLinUCB_0.9","diff-topics","college_mathematics","The following are multiple choice questions about high_school_mathematics.
Colton and his dad bought a gallon of paint that cost $13. They also bought 2 brushes that cost $9 each. What was the total cost, not including tax, of the brushes and the paint they bought?
(A) $22, (B) $24, (C) $31, (D) $35
Answer: C
Solve for y. y – 2 + 3y = 10
(A) 2, (B) 3, (C) 4, (D) 5
Answer: B
Solve 3 over 2 * w = 66.
(A) 33, (B) 44, (C) 88, (D) 99
Answer: B
Write 5.875 as a mixed number or fraction in simplest form.
(A) 5 and 8 over 9, (B) 5 and 7 over 8, (C) 7 over 8, (D) 5 and 87 over 105
Answer: B
Solve the equation 124 = m + 34.
(A) 158, (B) 90, (C) 88, (D) 4,216
Answer: B
Zelma buys p pounds of bananas for 40 cents per pound. She pays the clerk with a twenty-dollar bill. The clerk subtracts the total cost of the bananas from the twenty-dollar bill to determine the amount of change to give Zelma. Which expression represents the amount of change Zelma should receive?
(A) p - 20, (B) 20 - 40p, (C) 20 - 0.40p, (D) 0.40p - 20
Answer: C
Please answer the following question with just the correct option (A, B, C, or D) without any explanation or additional text.
Let f(x) be a function whose graph passes through the origin. If f(2n) = n^2 + f[2(n - 1)] for every integer n, what is the value of f(8)?
(A) '24', (B) '30', (C) '32', (D) '36'
Answer:","","","","","","","","","","","","true","2","","","","","","","","",""
"survey-html-form","13","451925","0.0-4.0-1.1","6gcvdqnh6082gj9","671c727b78c1624a723eade1","67b62c430b9240ccd8986e70","67b632b10db5d521b68c10d7","4","41163","","","{""mcAnswer"":""B""}","","","Let f(x) be a function whose graph passes through the origin. If f(2n) = n^2 + f[2(n - 1)] for every integer n, what is the value of f(8)?","[""24"",""30"",""32"",""36""]","C","B","modiste","","B","281","algLinUCB_0.9","diff-topics","college_mathematics","The following are multiple choice questions about high_school_mathematics.
Colton and his dad bought a gallon of paint that cost $13. They also bought 2 brushes that cost $9 each. What was the total cost, not including tax, of the brushes and the paint they bought?
(A) $22, (B) $24, (C) $31, (D) $35
Answer: C
Solve for y. y – 2 + 3y = 10
(A) 2, (B) 3, (C) 4, (D) 5
Answer: B
Solve 3 over 2 * w = 66.
(A) 33, (B) 44, (C) 88, (D) 99
Answer: B
Write 5.875 as a mixed number or fraction in simplest form.
(A) 5 and 8 over 9, (B) 5 and 7 over 8, (C) 7 over 8, (D) 5 and 87 over 105
Answer: B
Solve the equation 124 = m + 34.
(A) 158, (B) 90, (C) 88, (D) 4,216
Answer: B
Zelma buys p pounds of bananas for 40 cents per pound. She pays the clerk with a twenty-dollar bill. The clerk subtracts the total cost of the bananas from the twenty-dollar bill to determine the amount of change to give Zelma. Which expression represents the amount of change Zelma should receive?
(A) p - 20, (B) 20 - 40p, (C) 20 - 0.40p, (D) 0.40p - 20
Answer: C
Please answer the following question with just the correct option (A, B, C, or D) without any explanation or additional text.
Let f(x) be a function whose graph passes through the origin. If f(2n) = n^2 + f[2(n - 1)] for every integer n, what is the value of f(8)?
(A) '24', (B) '30', (C) '32', (D) '36'
Answer:","","","","","","","","","","","","","","","","","","","","","",""
"","","","","","","","","","","","","","","","","","","","","","","","","","","","B","","","","","","","","","","","","","","","","","","","","",""
"","","","","","","","","","","","","","","","","","","","","","","","","","","","","false","107","-1","C","true","false","defer","[]","false","0","true","2","{""elementary_mathematics"":[""40/50"",""31/50"",""4/6""],""high_school_mathematics"":[""27/50"",""22/50"",""3 / 5""],""college_mathematics"":[""22/50"",""27/51"",""2 / 5""]}","{""elementary_mathematics"":true,""college_mathematics"":false}","You should outsource this problem to the AI agent","true","null","true","null","null",""
"image-keyboard-response","14","453431","0.0-4.0-2.1","6gcvdqnh6082gj9","671c727b78c1624a723eade1","67b62c430b9240ccd8986e70","67b632b10db5d521b68c10d7","4","null","","","null","","","Let f(x) be a function whose graph passes through the origin. If f(2n) = n^2 + f[2(n - 1)] for every integer n, what is the value of f(8)?","[""24"",""30"",""32"",""36""]","C","B","modiste","","B","281","algLinUCB_0.9","diff-topics","college_mathematics","The following are multiple choice questions about high_school_mathematics.
Colton and his dad bought a gallon of paint that cost $13. They also bought 2 brushes that cost $9 each. What was the total cost, not including tax, of the brushes and the paint they bought?
(A) $22, (B) $24, (C) $31, (D) $35
Answer: C
Solve for y. y – 2 + 3y = 10
(A) 2, (B) 3, (C) 4, (D) 5
Answer: B
Solve 3 over 2 * w = 66.
(A) 33, (B) 44, (C) 88, (D) 99
Answer: B
Write 5.875 as a mixed number or fraction in simplest form.
(A) 5 and 8 over 9, (B) 5 and 7 over 8, (C) 7 over 8, (D) 5 and 87 over 105
Answer: B
Solve the equation 124 = m + 34.
(A) 158, (B) 90, (C) 88, (D) 4,216
Answer: B
Zelma buys p pounds of bananas for 40 cents per pound. She pays the clerk with a twenty-dollar bill. The clerk subtracts the total cost of the bananas from the twenty-dollar bill to determine the amount of change to give Zelma. Which expression represents the amount of change Zelma should receive?
(A) p - 20, (B) 20 - 40p, (C) 20 - 0.40p, (D) 0.40p - 20
Answer: C
Please answer the following question with just the correct option (A, B, C, or D) without any explanation or additional text.
Let f(x) be a function whose graph passes through the origin. If f(2n) = n^2 + f[2(n - 1)] for every integer n, what is the value of f(8)?
(A) '24', (B) '30', (C) '32', (D) '36'
Answer:","","","","","","","","","","","","","","","","","","","","","","feedback_imgs/Correct.png"
"call-function","15","453433","0.0-4.0-0.2","6gcvdqnh6082gj9","671c727b78c1624a723eade1","67b62c430b9240ccd8986e70","67b632b10db5d521b68c10d7","4","","","","","","defer","The base of a solid is the region bounded by x^2 = 4y and the line y = 2, and each plane section perpendicular to the y-axis is a square. The volume of the solid is","[""8"",""16"",""20"",""32""]","B","D","modiste","","D","258","algLinUCB_0.9","diff-topics","high_school_mathematics","The following are multiple choice questions about high_school_mathematics.
Colton and his dad bought a gallon of paint that cost $13. They also bought 2 brushes that cost $9 each. What was the total cost, not including tax, of the brushes and the paint they bought?
(A) $22, (B) $24, (C) $31, (D) $35
Answer: C
Solve for y. y – 2 + 3y = 10
(A) 2, (B) 3, (C) 4, (D) 5
Answer: B
Solve 3 over 2 * w = 66.
(A) 33, (B) 44, (C) 88, (D) 99
Answer: B
Write 5.875 as a mixed number or fraction in simplest form.
(A) 5 and 8 over 9, (B) 5 and 7 over 8, (C) 7 over 8, (D) 5 and 87 over 105
Answer: B
Solve the equation 124 = m + 34.
(A) 158, (B) 90, (C) 88, (D) 4,216
Answer: B
Zelma buys p pounds of bananas for 40 cents per pound. She pays the clerk with a twenty-dollar bill. The clerk subtracts the total cost of the bananas from the twenty-dollar bill to determine the amount of change to give Zelma. Which expression represents the amount of change Zelma should receive?
(A) p - 20, (B) 20 - 40p, (C) 20 - 0.40p, (D) 0.40p - 20
Answer: C
Please answer the following question with just the correct option (A, B, C, or D) without any explanation or additional text.
The base of a solid is the region bounded by x^2 = 4y and the line y = 2, and each plane section perpendicular to the y-axis is a square. The volume of the solid is
(A) '8', (B) '16', (C) '20', (D) '32'
Answer:","","","","","","","","","","","","","","","","","","","","","",""
"survey-html-form","16","485109","0.0-4.0-1.2","6gcvdqnh6082gj9","671c727b78c1624a723eade1","67b62c430b9240ccd8986e70","67b632b10db5d521b68c10d7","4","31674","","","{""mcAnswer"":""B""}","","","The base of a solid is the region bounded by x^2 = 4y and the line y = 2, and each plane section perpendicular to the y-axis is a square. The volume of the solid is","[""8"",""16"",""20"",""32""]","B","D","modiste","","D","258","algLinUCB_0.9","diff-topics","high_school_mathematics","The following are multiple choice questions about high_school_mathematics.
Colton and his dad bought a gallon of paint that cost $13. They also bought 2 brushes that cost $9 each. What was the total cost, not including tax, of the brushes and the paint they bought?
(A) $22, (B) $24, (C) $31, (D) $35
Answer: C
Solve for y. y – 2 + 3y = 10
(A) 2, (B) 3, (C) 4, (D) 5
Answer: B
Solve 3 over 2 * w = 66.
(A) 33, (B) 44, (C) 88, (D) 99
Answer: B
Write 5.875 as a mixed number or fraction in simplest form.
(A) 5 and 8 over 9, (B) 5 and 7 over 8, (C) 7 over 8, (D) 5 and 87 over 105
Answer: B
Solve the equation 124 = m + 34.
(A) 158, (B) 90, (C) 88, (D) 4,216
Answer: B
Zelma buys p pounds of bananas for 40 cents per pound. She pays the clerk with a twenty-dollar bill. The clerk subtracts the total cost of the bananas from the twenty-dollar bill to determine the amount of change to give Zelma. Which expression represents the amount of change Zelma should receive?
(A) p - 20, (B) 20 - 40p, (C) 20 - 0.40p, (D) 0.40p - 20
Answer: C
Please answer the following question with just the correct option (A, B, C, or D) without any explanation or additional text.
The base of a solid is the region bounded by x^2 = 4y and the line y = 2, and each plane section perpendicular to the y-axis is a square. The volume of the solid is
(A) '8', (B) '16', (C) '20', (D) '32'
Answer:","","","","","","","","","","","","","","","","","","","","","",""
"","","","","","","","","","","","","","","","","","","","","","","","","","","","B","","","","","","","","","","","","","","","","","","","","",""
"","","","","","","","","","","","","","","","","","","","","","","","","","","","","false","107","-1","B","false","false","defer","[]","false","0","false","0","{""elementary_mathematics"":[""40/50"",""31/50"",""4/6""],""high_school_mathematics"":[""27/50"",""22/50"",""3/6""],""college_mathematics"":[""22/50"",""27/51"",""2 / 5""]}","{""elementary_mathematics"":true,""college_mathematics"":false,""high_school_mathematics"":true}","You should attempt this problem by yourself","null","null","null","null","true",""
"image-keyboard-response","17","486615","0.0-4.0-2.2","6gcvdqnh6082gj9","671c727b78c1624a723eade1","67b62c430b9240ccd8986e70","67b632b10db5d521b68c10d7","4","null","","","null","","","The base of a solid is the region bounded by x^2 = 4y and the line y = 2, and each plane section perpendicular to the y-axis is a square. The volume of the solid is","[""8"",""16"",""20"",""32""]","B","D","modiste","","D","258","algLinUCB_0.9","diff-topics","high_school_mathematics","The following are multiple choice questions about high_school_mathematics.
Colton and his dad bought a gallon of paint that cost $13. They also bought 2 brushes that cost $9 each. What was the total cost, not including tax, of the brushes and the paint they bought?
(A) $22, (B) $24, (C) $31, (D) $35
Answer: C
Solve for y. y – 2 + 3y = 10
(A) 2, (B) 3, (C) 4, (D) 5
Answer: B
Solve 3 over 2 * w = 66.
(A) 33, (B) 44, (C) 88, (D) 99
Answer: B
Write 5.875 as a mixed number or fraction in simplest form.
(A) 5 and 8 over 9, (B) 5 and 7 over 8, (C) 7 over 8, (D) 5 and 87 over 105
Answer: B
Solve the equation 124 = m + 34.
(A) 158, (B) 90, (C) 88, (D) 4,216
Answer: B
Zelma buys p pounds of bananas for 40 cents per pound. She pays the clerk with a twenty-dollar bill. The clerk subtracts the total cost of the bananas from the twenty-dollar bill to determine the amount of change to give Zelma. Which expression represents the amount of change Zelma should receive?
(A) p - 20, (B) 20 - 40p, (C) 20 - 0.40p, (D) 0.40p - 20
Answer: C
Please answer the following question with just the correct option (A, B, C, or D) without any explanation or additional text.
The base of a solid is the region bounded by x^2 = 4y and the line y = 2, and each plane section perpendicular to the y-axis is a square. The volume of the solid is
(A) '8', (B) '16', (C) '20', (D) '32'
Answer:","","","","","","","","","","","","","","","","","","","","","","feedback_imgs/Incorrect.png"
"call-function","18","486616","0.0-4.0-0.3","6gcvdqnh6082gj9","671c727b78c1624a723eade1","67b62c430b9240ccd8986e70","67b632b10db5d521b68c10d7","4","","","","","","defer","What value of y makes y + 2.9 = 11 true?","[""8.1"",""8.9"",""9.1"",""13.9""]","B","A","modiste","","A","266","algLinUCB_0.9","diff-topics","elementary_mathematics","The following are multiple choice questions about high_school_mathematics.
Colton and his dad bought a gallon of paint that cost $13. They also bought 2 brushes that cost $9 each. What was the total cost, not including tax, of the brushes and the paint they bought?
(A) $22, (B) $24, (C) $31, (D) $35
Answer: C
Solve for y. y – 2 + 3y = 10
(A) 2, (B) 3, (C) 4, (D) 5
Answer: B
Solve 3 over 2 * w = 66.
(A) 33, (B) 44, (C) 88, (D) 99
Answer: B
Write 5.875 as a mixed number or fraction in simplest form.
(A) 5 and 8 over 9, (B) 5 and 7 over 8, (C) 7 over 8, (D) 5 and 87 over 105
Answer: B
Solve the equation 124 = m + 34.
(A) 158, (B) 90, (C) 88, (D) 4,216
Answer: B
Zelma buys p pounds of bananas for 40 cents per pound. She pays the clerk with a twenty-dollar bill. The clerk subtracts the total cost of the bananas from the twenty-dollar bill to determine the amount of change to give Zelma. Which expression represents the amount of change Zelma should receive?
(A) p - 20, (B) 20 - 40p, (C) 20 - 0.40p, (D) 0.40p - 20
Answer: C
Please answer the following question with just the correct option (A, B, C, or D) without any explanation or additional text.
What value of y makes y + 2.9 = 11 true?
(A) '8.1', (B) '8.9', (C) '9.1', (D) '13.9'
Answer:","","","","","","","","","","true","2","","","","","","","","","","",""
"survey-html-form","19","521372","0.0-4.0-1.3","6gcvdqnh6082gj9","671c727b78c1624a723eade1","67b62c430b9240ccd8986e70","67b632b10db5d521b68c10d7","4","34753.99999999994","","","{""mcAnswer"":""A""}","","","What value of y makes y + 2.9 = 11 true?","[""8.1"",""8.9"",""9.1"",""13.9""]","B","A","modiste","","A","266","algLinUCB_0.9","diff-topics","elementary_mathematics","The following are multiple choice questions about high_school_mathematics.
Colton and his dad bought a gallon of paint that cost $13. They also bought 2 brushes that cost $9 each. What was the total cost, not including tax, of the brushes and the paint they bought?
(A) $22, (B) $24, (C) $31, (D) $35
Answer: C
Solve for y. y – 2 + 3y = 10
(A) 2, (B) 3, (C) 4, (D) 5
Answer: B
Solve 3 over 2 * w = 66.
(A) 33, (B) 44, (C) 88, (D) 99
Answer: B
Write 5.875 as a mixed number or fraction in simplest form.
(A) 5 and 8 over 9, (B) 5 and 7 over 8, (C) 7 over 8, (D) 5 and 87 over 105
Answer: B
Solve the equation 124 = m + 34.
(A) 158, (B) 90, (C) 88, (D) 4,216
Answer: B
Zelma buys p pounds of bananas for 40 cents per pound. She pays the clerk with a twenty-dollar bill. The clerk subtracts the total cost of the bananas from the twenty-dollar bill to determine the amount of change to give Zelma. Which expression represents the amount of change Zelma should receive?
(A) p - 20, (B) 20 - 40p, (C) 20 - 0.40p, (D) 0.40p - 20
Answer: C
Please answer the following question with just the correct option (A, B, C, or D) without any explanation or additional text.
What value of y makes y + 2.9 = 11 true?
(A) '8.1', (B) '8.9', (C) '9.1', (D) '13.9'
Answer:","","","","","","","","","","","","","","","","","","","","","",""
"","","","","","","","","","","","","","","","","","","","","","","","","","","","A","","","","","","","","","","","","","","","","","","","","",""
"","","","","","","","","","","","","","","","","","","","","","","","","","","","","false","110","-1","B","true","false","defer","[]","true","2","false","0","{""elementary_mathematics"":[""41/51"",""31/50"",""4/6""],""high_school_mathematics"":[""27/50"",""22/50"",""3/6""],""college_mathematics"":[""22/50"",""27/51"",""2 / 5""]}","{""elementary_mathematics"":false,""college_mathematics"":false,""high_school_mathematics"":true}","You were wrong by yourself on elementary_mathematics last time. You should outsource this problem to a human agent","null","false","null","true","null",""
"image-keyboard-response","20","522879","0.0-4.0-2.3","6gcvdqnh6082gj9","671c727b78c1624a723eade1","67b62c430b9240ccd8986e70","67b632b10db5d521b68c10d7","4","null","","","null","","","What value of y makes y + 2.9 = 11 true?","[""8.1"",""8.9"",""9.1"",""13.9""]","B","A","modiste","","A","266","algLinUCB_0.9","diff-topics","elementary_mathematics","The following are multiple choice questions about high_school_mathematics.
Colton and his dad bought a gallon of paint that cost $13. They also bought 2 brushes that cost $9 each. What was the total cost, not including tax, of the brushes and the paint they bought?
(A) $22, (B) $24, (C) $31, (D) $35
Answer: C
Solve for y. y – 2 + 3y = 10
(A) 2, (B) 3, (C) 4, (D) 5
Answer: B
Solve 3 over 2 * w = 66.
(A) 33, (B) 44, (C) 88, (D) 99
Answer: B
Write 5.875 as a mixed number or fraction in simplest form.
(A) 5 and 8 over 9, (B) 5 and 7 over 8, (C) 7 over 8, (D) 5 and 87 over 105
Answer: B
Solve the equation 124 = m + 34.
(A) 158, (B) 90, (C) 88, (D) 4,216
Answer: B
Zelma buys p pounds of bananas for 40 cents per pound. She pays the clerk with a twenty-dollar bill. The clerk subtracts the total cost of the bananas from the twenty-dollar bill to determine the amount of change to give Zelma. Which expression represents the amount of change Zelma should receive?
(A) p - 20, (B) 20 - 40p, (C) 20 - 0.40p, (D) 0.40p - 20
Answer: C
Please answer the following question with just the correct option (A, B, C, or D) without any explanation or additional text.
What value of y makes y + 2.9 = 11 true?
(A) '8.1', (B) '8.9', (C) '9.1', (D) '13.9'
Answer:","","","","","","","","","","","","","","","","","","","","","","feedback_imgs/Correct.png"
"call-function","21","522880","0.0-4.0-0.4","6gcvdqnh6082gj9","671c727b78c1624a723eade1","67b62c430b9240ccd8986e70","67b632b10db5d521b68c10d7","4","","","","","","defer","What is the greatest common factor of 36 and 90?","[""6"",""18"",""36"",""180""]","B","B","modiste","","B","272","algLinUCB_0.9","diff-topics","elementary_mathematics","The following are multiple choice questions about high_school_mathematics.
Colton and his dad bought a gallon of paint that cost $13. They also bought 2 brushes that cost $9 each. What was the total cost, not including tax, of the brushes and the paint they bought?
(A) $22, (B) $24, (C) $31, (D) $35
Answer: C
Solve for y. y – 2 + 3y = 10
(A) 2, (B) 3, (C) 4, (D) 5
Answer: B
Solve 3 over 2 * w = 66.
(A) 33, (B) 44, (C) 88, (D) 99
Answer: B
Write 5.875 as a mixed number or fraction in simplest form.
(A) 5 and 8 over 9, (B) 5 and 7 over 8, (C) 7 over 8, (D) 5 and 87 over 105
Answer: B
Solve the equation 124 = m + 34.
(A) 158, (B) 90, (C) 88, (D) 4,216
Answer: B
Zelma buys p pounds of bananas for 40 cents per pound. She pays the clerk with a twenty-dollar bill. The clerk subtracts the total cost of the bananas from the twenty-dollar bill to determine the amount of change to give Zelma. Which expression represents the amount of change Zelma should receive?
(A) p - 20, (B) 20 - 40p, (C) 20 - 0.40p, (D) 0.40p - 20
Answer: C
Please answer the following question with just the correct option (A, B, C, or D) without any explanation or additional text.
What is the greatest common factor of 36 and 90?
(A) '6', (B) '18', (C) '36', (D) '180'
Answer:","","","","","","","","","","true","2","","","","","","","","","","",""
"survey-html-form","22","545514","0.0-4.0-1.4","6gcvdqnh6082gj9","671c727b78c1624a723eade1","67b62c430b9240ccd8986e70","67b632b10db5d521b68c10d7","4","22631","","","{""mcAnswer"":""B""}","","","What is the greatest common factor of 36 and 90?","[""6"",""18"",""36"",""180""]","B","B","modiste","","B","272","algLinUCB_0.9","diff-topics","elementary_mathematics","The following are multiple choice questions about high_school_mathematics.
Colton and his dad bought a gallon of paint that cost $13. They also bought 2 brushes that cost $9 each. What was the total cost, not including tax, of the brushes and the paint they bought?
(A) $22, (B) $24, (C) $31, (D) $35
Answer: C
Solve for y. y – 2 + 3y = 10
(A) 2, (B) 3, (C) 4, (D) 5
Answer: B
Solve 3 over 2 * w = 66.
(A) 33, (B) 44, (C) 88, (D) 99
Answer: B
Write 5.875 as a mixed number or fraction in simplest form.
(A) 5 and 8 over 9, (B) 5 and 7 over 8, (C) 7 over 8, (D) 5 and 87 over 105
Answer: B
Solve the equation 124 = m + 34.
(A) 158, (B) 90, (C) 88, (D) 4,216
Answer: B
Zelma buys p pounds of bananas for 40 cents per pound. She pays the clerk with a twenty-dollar bill. The clerk subtracts the total cost of the bananas from the twenty-dollar bill to determine the amount of change to give Zelma. Which expression represents the amount of change Zelma should receive?
(A) p - 20, (B) 20 - 40p, (C) 20 - 0.40p, (D) 0.40p - 20
Answer: C
Please answer the following question with just the correct option (A, B, C, or D) without any explanation or additional text.
What is the greatest common factor of 36 and 90?
(A) '6', (B) '18', (C) '36', (D) '180'
Answer:","","","","","","","","","","","","","","","","","","","","","",""
"","","","","","","","","","","","","","","","","","","","","","","","","","","","B","","","","","","","","","","","","","","","","","","","","",""
"","","","","","","","","","","","","","","","","","","","","","","","","","","","","false","113","-1","B","true","true","defer","[]","true","2","false","0","{""elementary_mathematics"":[""42/52"",""31/50"",""4/6""],""high_school_mathematics"":[""27/50"",""22/50"",""3/6""],""college_mathematics"":[""22/50"",""27/51"",""2 / 5""]}","{""elementary_mathematics"":false,""college_mathematics"":false,""high_school_mathematics"":true}","You should outsource this problem to a human agent","null","false","null","true","null",""
"image-keyboard-response","23","547019","0.0-4.0-2.4","6gcvdqnh6082gj9","671c727b78c1624a723eade1","67b62c430b9240ccd8986e70","67b632b10db5d521b68c10d7","4","null","","","null","","","What is the greatest common factor of 36 and 90?","[""6"",""18"",""36"",""180""]","B","B","modiste","","B","272","algLinUCB_0.9","diff-topics","elementary_mathematics","The following are multiple choice questions about high_school_mathematics.
Colton and his dad bought a gallon of paint that cost $13. They also bought 2 brushes that cost $9 each. What was the total cost, not including tax, of the brushes and the paint they bought?
(A) $22, (B) $24, (C) $31, (D) $35
Answer: C
Solve for y. y – 2 + 3y = 10
(A) 2, (B) 3, (C) 4, (D) 5
Answer: B
Solve 3 over 2 * w = 66.
(A) 33, (B) 44, (C) 88, (D) 99
Answer: B
Write 5.875 as a mixed number or fraction in simplest form.
(A) 5 and 8 over 9, (B) 5 and 7 over 8, (C) 7 over 8, (D) 5 and 87 over 105
Answer: B
Solve the equation 124 = m + 34.
(A) 158, (B) 90, (C) 88, (D) 4,216
Answer: B
Zelma buys p pounds of bananas for 40 cents per pound. She pays the clerk with a twenty-dollar bill. The clerk subtracts the total cost of the bananas from the twenty-dollar bill to determine the amount of change to give Zelma. Which expression represents the amount of change Zelma should receive?
(A) p - 20, (B) 20 - 40p, (C) 20 - 0.40p, (D) 0.40p - 20
Answer: C
Please answer the following question with just the correct option (A, B, C, or D) without any explanation or additional text.
What is the greatest common factor of 36 and 90?
(A) '6', (B) '18', (C) '36', (D) '180'
Answer:","","","","","","","","","","","","","","","","","","","","","","feedback_imgs/Correct.png"
"call-function","24","547020","0.0-4.0-0.5","6gcvdqnh6082gj9","671c727b78c1624a723eade1","67b62c430b9240ccd8986e70","67b632b10db5d521b68c10d7","4","","","","","","defer","Find -d1/-3cdotc1/~frac{1{-3}~}.","[""1"",""-1"",""0"",""2""]","B","B","modiste","","B","257","algLinUCB_0.9","diff-topics","high_school_mathematics","The following are multiple choice questions about high_school_mathematics.
Colton and his dad bought a gallon of paint that cost $13. They also bought 2 brushes that cost $9 each. What was the total cost, not including tax, of the brushes and the paint they bought?
(A) $22, (B) $24, (C) $31, (D) $35
Answer: C
Solve for y. y – 2 + 3y = 10
(A) 2, (B) 3, (C) 4, (D) 5
Answer: B
Solve 3 over 2 * w = 66.
(A) 33, (B) 44, (C) 88, (D) 99
Answer: B
Write 5.875 as a mixed number or fraction in simplest form.
(A) 5 and 8 over 9, (B) 5 and 7 over 8, (C) 7 over 8, (D) 5 and 87 over 105
Answer: B
Solve the equation 124 = m + 34.
(A) 158, (B) 90, (C) 88, (D) 4,216
Answer: B
Zelma buys p pounds of bananas for 40 cents per pound. She pays the clerk with a twenty-dollar bill. The clerk subtracts the total cost of the bananas from the twenty-dollar bill to determine the amount of change to give Zelma. Which expression represents the amount of change Zelma should receive?
(A) p - 20, (B) 20 - 40p, (C) 20 - 0.40p, (D) 0.40p - 20
Answer: C
Please answer the following question with just the correct option (A, B, C, or D) without any explanation or additional text.
Find -d1/-3cdotc1/~frac{1{-3}~}.
(A) '1', (B) '-1', (C) '0', (D) '2'
Answer:","","","","","","","","","","true","2","","","","","","","","","","",""
"survey-html-form","25","559900","0.0-4.0-1.5","6gcvdqnh6082gj9","671c727b78c1624a723eade1","67b62c430b9240ccd8986e70","67b632b10db5d521b68c10d7","4","12877","","","{""mcAnswer"":""B""}","","","Find -d1/-3cdotc1/~frac{1{-3}~}.","[""1"",""-1"",""0"",""2""]","B","B","modiste","","B","257","algLinUCB_0.9","diff-topics","high_school_mathematics","The following are multiple choice questions about high_school_mathematics.
Colton and his dad bought a gallon of paint that cost $13. They also bought 2 brushes that cost $9 each. What was the total cost, not including tax, of the brushes and the paint they bought?
(A) $22, (B) $24, (C) $31, (D) $35
Answer: C
Solve for y. y – 2 + 3y = 10
(A) 2, (B) 3, (C) 4, (D) 5
Answer: B
Solve 3 over 2 * w = 66.
(A) 33, (B) 44, (C) 88, (D) 99
Answer: B
Write 5.875 as a mixed number or fraction in simplest form.
(A) 5 and 8 over 9, (B) 5 and 7 over 8, (C) 7 over 8, (D) 5 and 87 over 105
Answer: B
Solve the equation 124 = m + 34.
(A) 158, (B) 90, (C) 88, (D) 4,216
Answer: B
Zelma buys p pounds of bananas for 40 cents per pound. She pays the clerk with a twenty-dollar bill. The clerk subtracts the total cost of the bananas from the twenty-dollar bill to determine the amount of change to give Zelma. Which expression represents the amount of change Zelma should receive?
(A) p - 20, (B) 20 - 40p, (C) 20 - 0.40p, (D) 0.40p - 20
Answer: C
Please answer the following question with just the correct option (A, B, C, or D) without any explanation or additional text.
Find -d1/-3cdotc1/~frac{1{-3}~}.
(A) '1', (B) '-1', (C) '0', (D) '2'
Answer:","","","","","","","","","","","","","","","","","","","","","",""
"","","","","","","","","","","","","","","","","","","","","","","","","","","","B","","","","","","","","","","","","","","","","","","","","",""
"","","","","","","","","","","","","","","","","","","","","","","","","","","","","false","116","-1","B","true","true","defer","[]","true","2","false","0","{""elementary_mathematics"":[""42/52"",""31/50"",""4/6""],""high_school_mathematics"":[""28/51"",""22/50"",""3/6""],""college_mathematics"":[""22/50"",""27/51"",""2 / 5""]}","{""elementary_mathematics"":false,""college_mathematics"":false,""high_school_mathematics"":false}","You were wrong by yourself on high_school_mathematics last time. You should outsource this problem to a human agent","null","false","null","true","null",""
"image-keyboard-response","26","561406","0.0-4.0-2.5","6gcvdqnh6082gj9","671c727b78c1624a723eade1","67b62c430b9240ccd8986e70","67b632b10db5d521b68c10d7","4","null","","","null","","","Find -d1/-3cdotc1/~frac{1{-3}~}.","[""1"",""-1"",""0"",""2""]","B","B","modiste","","B","257","algLinUCB_0.9","diff-topics","high_school_mathematics","The following are multiple choice questions about high_school_mathematics.
Colton and his dad bought a gallon of paint that cost $13. They also bought 2 brushes that cost $9 each. What was the total cost, not including tax, of the brushes and the paint they bought?
(A) $22, (B) $24, (C) $31, (D) $35
Answer: C
Solve for y. y – 2 + 3y = 10
(A) 2, (B) 3, (C) 4, (D) 5
Answer: B
Solve 3 over 2 * w = 66.
(A) 33, (B) 44, (C) 88, (D) 99
Answer: B
Write 5.875 as a mixed number or fraction in simplest form.
(A) 5 and 8 over 9, (B) 5 and 7 over 8, (C) 7 over 8, (D) 5 and 87 over 105
Answer: B
Solve the equation 124 = m + 34.
(A) 158, (B) 90, (C) 88, (D) 4,216
Answer: B
Zelma buys p pounds of bananas for 40 cents per pound. She pays the clerk with a twenty-dollar bill. The clerk subtracts the total cost of the bananas from the twenty-dollar bill to determine the amount of change to give Zelma. Which expression represents the amount of change Zelma should receive?
(A) p - 20, (B) 20 - 40p, (C) 20 - 0.40p, (D) 0.40p - 20
Answer: C
Please answer the following question with just the correct option (A, B, C, or D) without any explanation or additional text.
Find -d1/-3cdotc1/~frac{1{-3}~}.
(A) '1', (B) '-1', (C) '0', (D) '2'
Answer:","","","","","","","","","","","","","","","","","","","","","","feedback_imgs/Correct.png"
"call-function","27","561407","0.0-4.0-0.6","6gcvdqnh6082gj9","671c727b78c1624a723eade1","67b62c430b9240ccd8986e70","67b632b10db5d521b68c10d7","4","","","","","","defer","What is the measure, in degrees, of an angle that is equivalent to 1/360 of a circle?","[""1"",""90"",""180"",""360""]","A","A","modiste","","A","277","algLinUCB_0.9","diff-topics","elementary_mathematics","The following are multiple choice questions about high_school_mathematics.
Colton and his dad bought a gallon of paint that cost $13. They also bought 2 brushes that cost $9 each. What was the total cost, not including tax, of the brushes and the paint they bought?
(A) $22, (B) $24, (C) $31, (D) $35
Answer: C
Solve for y. y – 2 + 3y = 10
(A) 2, (B) 3, (C) 4, (D) 5
Answer: B
Solve 3 over 2 * w = 66.
(A) 33, (B) 44, (C) 88, (D) 99
Answer: B
Write 5.875 as a mixed number or fraction in simplest form.
(A) 5 and 8 over 9, (B) 5 and 7 over 8, (C) 7 over 8, (D) 5 and 87 over 105
Answer: B
Solve the equation 124 = m + 34.
(A) 158, (B) 90, (C) 88, (D) 4,216
Answer: B
Zelma buys p pounds of bananas for 40 cents per pound. She pays the clerk with a twenty-dollar bill. The clerk subtracts the total cost of the bananas from the twenty-dollar bill to determine the amount of change to give Zelma. Which expression represents the amount of change Zelma should receive?
(A) p - 20, (B) 20 - 40p, (C) 20 - 0.40p, (D) 0.40p - 20
Answer: C
Please answer the following question with just the correct option (A, B, C, or D) without any explanation or additional text.
What is the measure, in degrees, of an angle that is equivalent to 1/360 of a circle?
(A) '1', (B) '90', (C) '180', (D) '360'
Answer:","","","","","","","","","","true","2","","","","","","","","","","",""
"survey-html-form","28","574379","0.0-4.0-1.6","6gcvdqnh6082gj9","671c727b78c1624a723eade1","67b62c430b9240ccd8986e70","67b632b10db5d521b68c10d7","4","12968.999999999884","","","{""mcAnswer"":""A""}","","","What is the measure, in degrees, of an angle that is equivalent to 1/360 of a circle?","[""1"",""90"",""180"",""360""]","A","A","modiste","","A","277","algLinUCB_0.9","diff-topics","elementary_mathematics","The following are multiple choice questions about high_school_mathematics.
Colton and his dad bought a gallon of paint that cost $13. They also bought 2 brushes that cost $9 each. What was the total cost, not including tax, of the brushes and the paint they bought?
(A) $22, (B) $24, (C) $31, (D) $35
Answer: C
Solve for y. y – 2 + 3y = 10
(A) 2, (B) 3, (C) 4, (D) 5
Answer: B
Solve 3 over 2 * w = 66.
(A) 33, (B) 44, (C) 88, (D) 99
Answer: B
Write 5.875 as a mixed number or fraction in simplest form.
(A) 5 and 8 over 9, (B) 5 and 7 over 8, (C) 7 over 8, (D) 5 and 87 over 105
Answer: B
Solve the equation 124 = m + 34.
(A) 158, (B) 90, (C) 88, (D) 4,216
Answer: B
Zelma buys p pounds of bananas for 40 cents per pound. She pays the clerk with a twenty-dollar bill. The clerk subtracts the total cost of the bananas from the twenty-dollar bill to determine the amount of change to give Zelma. Which expression represents the amount of change Zelma should receive?
(A) p - 20, (B) 20 - 40p, (C) 20 - 0.40p, (D) 0.40p - 20
Answer: C
Please answer the following question with just the correct option (A, B, C, or D) without any explanation or additional text.
What is the measure, in degrees, of an angle that is equivalent to 1/360 of a circle?
(A) '1', (B) '90', (C) '180', (D) '360'
Answer:","","","","","","","","","","","","","","","","","","","","","",""
"","","","","","","","","","","","","","","","","","","","","","","","","","","","A","","","","","","","","","","","","","","","","","","","","",""
"","","","","","","","","","","","","","","","","","","","","","","","","","","","","false","119","-1","A","true","true","defer","[]","true","2","false","0","{""elementary_mathematics"":[""43/53"",""31/50"",""4/6""],""high_school_mathematics"":[""28/51"",""22/50"",""3/6""],""college_mathematics"":[""22/50"",""27/51"",""2 / 5""]}","{""elementary_mathematics"":false,""college_mathematics"":false,""high_school_mathematics"":false}","You should outsource this problem to a human agent","null","false","null","true","null",""
"image-keyboard-response","29","575883","0.0-4.0-2.6","6gcvdqnh6082gj9","671c727b78c1624a723eade1","67b62c430b9240ccd8986e70","67b632b10db5d521b68c10d7","4","null","","","null","","","What is the measure, in degrees, of an angle that is equivalent to 1/360 of a circle?","[""1"",""90"",""180"",""360""]","A","A","modiste","","A","277","algLinUCB_0.9","diff-topics","elementary_mathematics","The following are multiple choice questions about high_school_mathematics.
Colton and his dad bought a gallon of paint that cost $13. They also bought 2 brushes that cost $9 each. What was the total cost, not including tax, of the brushes and the paint they bought?
(A) $22, (B) $24, (C) $31, (D) $35
Answer: C
Solve for y. y – 2 + 3y = 10
(A) 2, (B) 3, (C) 4, (D) 5
Answer: B
Solve 3 over 2 * w = 66.
(A) 33, (B) 44, (C) 88, (D) 99
Answer: B
Write 5.875 as a mixed number or fraction in simplest form.
(A) 5 and 8 over 9, (B) 5 and 7 over 8, (C) 7 over 8, (D) 5 and 87 over 105
Answer: B
Solve the equation 124 = m + 34.
(A) 158, (B) 90, (C) 88, (D) 4,216
Answer: B
Zelma buys p pounds of bananas for 40 cents per pound. She pays the clerk with a twenty-dollar bill. The clerk subtracts the total cost of the bananas from the twenty-dollar bill to determine the amount of change to give Zelma. Which expression represents the amount of change Zelma should receive?
(A) p - 20, (B) 20 - 40p, (C) 20 - 0.40p, (D) 0.40p - 20
Answer: C
Please answer the following question with just the correct option (A, B, C, or D) without any explanation or additional text.
What is the measure, in degrees, of an angle that is equivalent to 1/360 of a circle?
(A) '1', (B) '90', (C) '180', (D) '360'
Answer:","","","","","","","","","","","","","","","","","","","","","","feedback_imgs/Correct.png"
"call-function","30","575885","0.0-4.0-0.7","6gcvdqnh6082gj9","671c727b78c1624a723eade1","67b62c430b9240ccd8986e70","67b632b10db5d521b68c10d7","4","","","","","","defer","Pat bounces a basketball 25 times in 30 seconds. At that rate, approximately how many times will Pat bounce the ball in 150 seconds?","[""120"",""125"",""144"",""145""]","B","B","modiste","","B","260","algLinUCB_0.9","diff-topics","elementary_mathematics","The following are multiple choice questions about high_school_mathematics.
Colton and his dad bought a gallon of paint that cost $13. They also bought 2 brushes that cost $9 each. What was the total cost, not including tax, of the brushes and the paint they bought?
(A) $22, (B) $24, (C) $31, (D) $35
Answer: C
Solve for y. y – 2 + 3y = 10
(A) 2, (B) 3, (C) 4, (D) 5
Answer: B
Solve 3 over 2 * w = 66.
(A) 33, (B) 44, (C) 88, (D) 99
Answer: B
Write 5.875 as a mixed number or fraction in simplest form.
(A) 5 and 8 over 9, (B) 5 and 7 over 8, (C) 7 over 8, (D) 5 and 87 over 105
Answer: B
Solve the equation 124 = m + 34.
(A) 158, (B) 90, (C) 88, (D) 4,216
Answer: B
Zelma buys p pounds of bananas for 40 cents per pound. She pays the clerk with a twenty-dollar bill. The clerk subtracts the total cost of the bananas from the twenty-dollar bill to determine the amount of change to give Zelma. Which expression represents the amount of change Zelma should receive?
(A) p - 20, (B) 20 - 40p, (C) 20 - 0.40p, (D) 0.40p - 20
Answer: C
Please answer the following question with just the correct option (A, B, C, or D) without any explanation or additional text.
Pat bounces a basketball 25 times in 30 seconds. At that rate, approximately how many times will Pat bounce the ball in 150 seconds?
(A) '120', (B) '125', (C) '144', (D) '145'
Answer:","","","","","","","","","","true","2","","","","","","","","","","",""
"survey-html-form","31","588115","0.0-4.0-1.7","6gcvdqnh6082gj9","671c727b78c1624a723eade1","67b62c430b9240ccd8986e70","67b632b10db5d521b68c10d7","4","12228","","","{""mcAnswer"":""B""}","","","Pat bounces a basketball 25 times in 30 seconds. At that rate, approximately how many times will Pat bounce the ball in 150 seconds?","[""120"",""125"",""144"",""145""]","B","B","modiste","","B","260","algLinUCB_0.9","diff-topics","elementary_mathematics","The following are multiple choice questions about high_school_mathematics.
Colton and his dad bought a gallon of paint that cost $13. They also bought 2 brushes that cost $9 each. What was the total cost, not including tax, of the brushes and the paint they bought?
(A) $22, (B) $24, (C) $31, (D) $35
Answer: C
Solve for y. y – 2 + 3y = 10
(A) 2, (B) 3, (C) 4, (D) 5
Answer: B
Solve 3 over 2 * w = 66.
(A) 33, (B) 44, (C) 88, (D) 99
Answer: B
Write 5.875 as a mixed number or fraction in simplest form.
(A) 5 and 8 over 9, (B) 5 and 7 over 8, (C) 7 over 8, (D) 5 and 87 over 105
Answer: B
Solve the equation 124 = m + 34.
(A) 158, (B) 90, (C) 88, (D) 4,216
Answer: B
Zelma buys p pounds of bananas for 40 cents per pound. She pays the clerk with a twenty-dollar bill. The clerk subtracts the total cost of the bananas from the twenty-dollar bill to determine the amount of change to give Zelma. Which expression represents the amount of change Zelma should receive?
(A) p - 20, (B) 20 - 40p, (C) 20 - 0.40p, (D) 0.40p - 20
Answer: C
Please answer the following question with just the correct option (A, B, C, or D) without any explanation or additional text.
Pat bounces a basketball 25 times in 30 seconds. At that rate, approximately how many times will Pat bounce the ball in 150 seconds?
(A) '120', (B) '125', (C) '144', (D) '145'
Answer:","","","","","","","","","","","","","","","","","","","","","",""
"","","","","","","","","","","","","","","","","","","","","","","","","","","","B","","","","","","","","","","","","","","","","","","","","",""
"","","","","","","","","","","","","","","","","","","","","","","","","","","","","false","122","-1","B","true","true","defer","[]","true","2","false","0","{""elementary_mathematics"":[""44/54"",""31/50"",""4/6""],""high_school_mathematics"":[""28/51"",""22/50"",""3/6""],""college_mathematics"":[""22/50"",""27/51"",""2 / 5""]}","{""elementary_mathematics"":false,""college_mathematics"":false,""high_school_mathematics"":false}","You should outsource this problem to a human agent","null","false","null","true","null",""
"image-keyboard-response","32","589621","0.0-4.0-2.7","6gcvdqnh6082gj9","671c727b78c1624a723eade1","67b62c430b9240ccd8986e70","67b632b10db5d521b68c10d7","4","null","","","null","","","Pat bounces a basketball 25 times in 30 seconds. At that rate, approximately how many times will Pat bounce the ball in 150 seconds?","[""120"",""125"",""144"",""145""]","B","B","modiste","","B","260","algLinUCB_0.9","diff-topics","elementary_mathematics","The following are multiple choice questions about high_school_mathematics.
Colton and his dad bought a gallon of paint that cost $13. They also bought 2 brushes that cost $9 each. What was the total cost, not including tax, of the brushes and the paint they bought?
(A) $22, (B) $24, (C) $31, (D) $35
Answer: C
Solve for y. y – 2 + 3y = 10
(A) 2, (B) 3, (C) 4, (D) 5
Answer: B
Solve 3 over 2 * w = 66.
(A) 33, (B) 44, (C) 88, (D) 99
Answer: B
Write 5.875 as a mixed number or fraction in simplest form.
(A) 5 and 8 over 9, (B) 5 and 7 over 8, (C) 7 over 8, (D) 5 and 87 over 105
Answer: B
Solve the equation 124 = m + 34.
(A) 158, (B) 90, (C) 88, (D) 4,216
Answer: B
Zelma buys p pounds of bananas for 40 cents per pound. She pays the clerk with a twenty-dollar bill. The clerk subtracts the total cost of the bananas from the twenty-dollar bill to determine the amount of change to give Zelma. Which expression represents the amount of change Zelma should receive?
(A) p - 20, (B) 20 - 40p, (C) 20 - 0.40p, (D) 0.40p - 20
Answer: C
Please answer the following question with just the correct option (A, B, C, or D) without any explanation or additional text.
Pat bounces a basketball 25 times in 30 seconds. At that rate, approximately how many times will Pat bounce the ball in 150 seconds?
(A) '120', (B) '125', (C) '144', (D) '145'
Answer:","","","","","","","","","","","","","","","","","","","","","","feedback_imgs/Correct.png"
"call-function","33","589622","0.0-4.0-0.8","6gcvdqnh6082gj9","671c727b78c1624a723eade1","67b62c430b9240ccd8986e70","67b632b10db5d521b68c10d7","4","","","","","","defer","If A is a subset of the real line R and A contains each rational number, which of the following must be true?","[""If A is open, then A = R."",""If A is closed, then A = R."",""If A is uncountable, then A = R."",""If A is uncountable, then A is open.""]","B","C","modiste","","B","285","algLinUCB_0.9","diff-topics","college_mathematics","The following are multiple choice questions about high_school_mathematics.
Colton and his dad bought a gallon of paint that cost $13. They also bought 2 brushes that cost $9 each. What was the total cost, not including tax, of the brushes and the paint they bought?
(A) $22, (B) $24, (C) $31, (D) $35
Answer: C
Solve for y. y – 2 + 3y = 10
(A) 2, (B) 3, (C) 4, (D) 5
Answer: B
Solve 3 over 2 * w = 66.
(A) 33, (B) 44, (C) 88, (D) 99
Answer: B
Write 5.875 as a mixed number or fraction in simplest form.
(A) 5 and 8 over 9, (B) 5 and 7 over 8, (C) 7 over 8, (D) 5 and 87 over 105
Answer: B
Solve the equation 124 = m + 34.
(A) 158, (B) 90, (C) 88, (D) 4,216
Answer: B
Zelma buys p pounds of bananas for 40 cents per pound. She pays the clerk with a twenty-dollar bill. The clerk subtracts the total cost of the bananas from the twenty-dollar bill to determine the amount of change to give Zelma. Which expression represents the amount of change Zelma should receive?
(A) p - 20, (B) 20 - 40p, (C) 20 - 0.40p, (D) 0.40p - 20
Answer: C
Please answer the following question with just the correct option (A, B, C, or D) without any explanation or additional text.
If A is a subset of the real line R and A contains each rational number, which of the following must be true?
(A) 'If A is open, then A = R.', (B) 'If A is closed, then A = R.', (C) 'If A is uncountable, then A = R.', (D) 'If A is uncountable, then A is open.'
Answer:","","","","","","","","","","","","true","2","","","","","","","","",""
"survey-html-form","34","610675","0.0-4.0-1.8","6gcvdqnh6082gj9","671c727b78c1624a723eade1","67b62c430b9240ccd8986e70","67b632b10db5d521b68c10d7","4","21051","","","{""mcAnswer"":""B""}","","","If A is a subset of the real line R and A contains each rational number, which of the following must be true?","[""If A is open, then A = R."",""If A is closed, then A = R."",""If A is uncountable, then A = R."",""If A is uncountable, then A is open.""]","B","C","modiste","","B","285","algLinUCB_0.9","diff-topics","college_mathematics","The following are multiple choice questions about high_school_mathematics.
Colton and his dad bought a gallon of paint that cost $13. They also bought 2 brushes that cost $9 each. What was the total cost, not including tax, of the brushes and the paint they bought?
(A) $22, (B) $24, (C) $31, (D) $35
Answer: C
Solve for y. y – 2 + 3y = 10
(A) 2, (B) 3, (C) 4, (D) 5
Answer: B
Solve 3 over 2 * w = 66.
(A) 33, (B) 44, (C) 88, (D) 99
Answer: B
Write 5.875 as a mixed number or fraction in simplest form.
(A) 5 and 8 over 9, (B) 5 and 7 over 8, (C) 7 over 8, (D) 5 and 87 over 105
Answer: B
Solve the equation 124 = m + 34.
(A) 158, (B) 90, (C) 88, (D) 4,216
Answer: B
Zelma buys p pounds of bananas for 40 cents per pound. She pays the clerk with a twenty-dollar bill. The clerk subtracts the total cost of the bananas from the twenty-dollar bill to determine the amount of change to give Zelma. Which expression represents the amount of change Zelma should receive?
(A) p - 20, (B) 20 - 40p, (C) 20 - 0.40p, (D) 0.40p - 20
Answer: C
Please answer the following question with just the correct option (A, B, C, or D) without any explanation or additional text.
If A is a subset of the real line R and A contains each rational number, which of the following must be true?
(A) 'If A is open, then A = R.', (B) 'If A is closed, then A = R.', (C) 'If A is uncountable, then A = R.', (D) 'If A is uncountable, then A is open.'
Answer:","","","","","","","","","","","","","","","","","","","","","",""
"","","","","","","","","","","","","","","","","","","","","","","","","","","","B","","","","","","","","","","","","","","","","","","","","",""
"","","","","","","","","","","","","","","","","","","","","","","","","","","","","false","129","-1","B","true","true","defer","[]","false","0","true","2","{""elementary_mathematics"":[""44/54"",""31/50"",""4/6""],""high_school_mathematics"":[""28/51"",""22/50"",""3/6""],""college_mathematics"":[""22/50"",""28/52"",""2 / 5""]}","{""elementary_mathematics"":false,""college_mathematics"":false,""high_school_mathematics"":false}","You should outsource this problem to the AI agent","false","null","true","null","null",""
"image-keyboard-response","35","612181","0.0-4.0-2.8","6gcvdqnh6082gj9","671c727b78c1624a723eade1","67b62c430b9240ccd8986e70","67b632b10db5d521b68c10d7","4","null","","","null","","","If A is a subset of the real line R and A contains each rational number, which of the following must be true?","[""If A is open, then A = R."",""If A is closed, then A = R."",""If A is uncountable, then A = R."",""If A is uncountable, then A is open.""]","B","C","modiste","","B","285","algLinUCB_0.9","diff-topics","college_mathematics","The following are multiple choice questions about high_school_mathematics.
Colton and his dad bought a gallon of paint that cost $13. They also bought 2 brushes that cost $9 each. What was the total cost, not including tax, of the brushes and the paint they bought?
(A) $22, (B) $24, (C) $31, (D) $35
Answer: C
Solve for y. y – 2 + 3y = 10
(A) 2, (B) 3, (C) 4, (D) 5
Answer: B
Solve 3 over 2 * w = 66.
(A) 33, (B) 44, (C) 88, (D) 99
Answer: B
Write 5.875 as a mixed number or fraction in simplest form.
(A) 5 and 8 over 9, (B) 5 and 7 over 8, (C) 7 over 8, (D) 5 and 87 over 105
Answer: B
Solve the equation 124 = m + 34.
(A) 158, (B) 90, (C) 88, (D) 4,216
Answer: B
Zelma buys p pounds of bananas for 40 cents per pound. She pays the clerk with a twenty-dollar bill. The clerk subtracts the total cost of the bananas from the twenty-dollar bill to determine the amount of change to give Zelma. Which expression represents the amount of change Zelma should receive?
(A) p - 20, (B) 20 - 40p, (C) 20 - 0.40p, (D) 0.40p - 20
Answer: C
Please answer the following question with just the correct option (A, B, C, or D) without any explanation or additional text.
If A is a subset of the real line R and A contains each rational number, which of the following must be true?
(A) 'If A is open, then A = R.', (B) 'If A is closed, then A = R.', (C) 'If A is uncountable, then A = R.', (D) 'If A is uncountable, then A is open.'
Answer:","","","","","","","","","","","","","","","","","","","","","","feedback_imgs/Correct.png"
"call-function","36","612182","0.0-4.0-0.9","6gcvdqnh6082gj9","671c727b78c1624a723eade1","67b62c430b9240ccd8986e70","67b632b10db5d521b68c10d7","4","","","","","","defer","John noticed that the angle formed by the minute hand and hour hand on a standard 12-hour clock was 110 degrees when he left home after 6 p.m.; it was also 110 degrees when he returned after 6 p.m. but before 7 p.m. that same night. If he left home for more than five minutes, for how many minutes was he away?","[""36"",""40"",""38"",""43""]","C","A","modiste","","B","255","algLinUCB_0.9","diff-topics","high_school_mathematics","The following are multiple choice questions about high_school_mathematics.
Colton and his dad bought a gallon of paint that cost $13. They also bought 2 brushes that cost $9 each. What was the total cost, not including tax, of the brushes and the paint they bought?
(A) $22, (B) $24, (C) $31, (D) $35
Answer: C
Solve for y. y – 2 + 3y = 10
(A) 2, (B) 3, (C) 4, (D) 5
Answer: B
Solve 3 over 2 * w = 66.
(A) 33, (B) 44, (C) 88, (D) 99
Answer: B
Write 5.875 as a mixed number or fraction in simplest form.
(A) 5 and 8 over 9, (B) 5 and 7 over 8, (C) 7 over 8, (D) 5 and 87 over 105
Answer: B
Solve the equation 124 = m + 34.
(A) 158, (B) 90, (C) 88, (D) 4,216
Answer: B
Zelma buys p pounds of bananas for 40 cents per pound. She pays the clerk with a twenty-dollar bill. The clerk subtracts the total cost of the bananas from the twenty-dollar bill to determine the amount of change to give Zelma. Which expression represents the amount of change Zelma should receive?
(A) p - 20, (B) 20 - 40p, (C) 20 - 0.40p, (D) 0.40p - 20
Answer: C
Please answer the following question with just the correct option (A, B, C, or D) without any explanation or additional text.
John noticed that the angle formed by the minute hand and hour hand on a standard 12-hour clock was 110 degrees when he left home after 6 p.m.; it was also 110 degrees when he returned after 6 p.m. but before 7 p.m. that same night. If he left home for more than five minutes, for how many minutes was he away?
(A) '36', (B) '40', (C) '38', (D) '43'
Answer:","","","","","","","","","","true","2","","","","","","","","","","",""
"survey-html-form","37","625345","0.0-4.0-1.9","6gcvdqnh6082gj9","671c727b78c1624a723eade1","67b62c430b9240ccd8986e70","67b632b10db5d521b68c10d7","4","13160","","","{""mcAnswer"":""A""}","","","John noticed that the angle formed by the minute hand and hour hand on a standard 12-hour clock was 110 degrees when he left home after 6 p.m.; it was also 110 degrees when he returned after 6 p.m. but before 7 p.m. that same night. If he left home for more than five minutes, for how many minutes was he away?","[""36"",""40"",""38"",""43""]","C","A","modiste","","B","255","algLinUCB_0.9","diff-topics","high_school_mathematics","The following are multiple choice questions about high_school_mathematics.
Colton and his dad bought a gallon of paint that cost $13. They also bought 2 brushes that cost $9 each. What was the total cost, not including tax, of the brushes and the paint they bought?
(A) $22, (B) $24, (C) $31, (D) $35
Answer: C
Solve for y. y – 2 + 3y = 10
(A) 2, (B) 3, (C) 4, (D) 5
Answer: B
Solve 3 over 2 * w = 66.
(A) 33, (B) 44, (C) 88, (D) 99
Answer: B
Write 5.875 as a mixed number or fraction in simplest form.
(A) 5 and 8 over 9, (B) 5 and 7 over 8, (C) 7 over 8, (D) 5 and 87 over 105
Answer: B
Solve the equation 124 = m + 34.
(A) 158, (B) 90, (C) 88, (D) 4,216
Answer: B
Zelma buys p pounds of bananas for 40 cents per pound. She pays the clerk with a twenty-dollar bill. The clerk subtracts the total cost of the bananas from the twenty-dollar bill to determine the amount of change to give Zelma. Which expression represents the amount of change Zelma should receive?
(A) p - 20, (B) 20 - 40p, (C) 20 - 0.40p, (D) 0.40p - 20
Answer: C
Please answer the following question with just the correct option (A, B, C, or D) without any explanation or additional text.
John noticed that the angle formed by the minute hand and hour hand on a standard 12-hour clock was 110 degrees when he left home after 6 p.m.; it was also 110 degrees when he returned after 6 p.m. but before 7 p.m. that same night. If he left home for more than five minutes, for how many minutes was he away?
(A) '36', (B) '40', (C) '38', (D) '43'
Answer:","","","","","","","","","","","","","","","","","","","","","",""
"","","","","","","","","","","","","","","","","","","","","","","","","","","","A","","","","","","","","","","","","","","","","","","","","",""
"","","","","","","","","","","","","","","","","","","","","","","","","","","","","false","122","-1","C","false","false","defer","[]","true","2","false","0","{""elementary_mathematics"":[""44/54"",""31/50"",""4/6""],""high_school_mathematics"":[""28/52"",""22/50"",""3/6""],""college_mathematics"":[""22/50"",""28/52"",""2 / 5""]}","{""elementary_mathematics"":false,""college_mathematics"":false,""high_school_mathematics"":false}","You should outsource this problem to a human agent","null","false","null","true","null",""
"image-keyboard-response","38","626852","0.0-4.0-2.9","6gcvdqnh6082gj9","671c727b78c1624a723eade1","67b62c430b9240ccd8986e70","67b632b10db5d521b68c10d7","4","null","","","null","","","John noticed that the angle formed by the minute hand and hour hand on a standard 12-hour clock was 110 degrees when he left home after 6 p.m.; it was also 110 degrees when he returned after 6 p.m. but before 7 p.m. that same night. If he left home for more than five minutes, for how many minutes was he away?","[""36"",""40"",""38"",""43""]","C","A","modiste","","B","255","algLinUCB_0.9","diff-topics","high_school_mathematics","The following are multiple choice questions about high_school_mathematics.
Colton and his dad bought a gallon of paint that cost $13. They also bought 2 brushes that cost $9 each. What was the total cost, not including tax, of the brushes and the paint they bought?
(A) $22, (B) $24, (C) $31, (D) $35
Answer: C
Solve for y. y – 2 + 3y = 10
(A) 2, (B) 3, (C) 4, (D) 5
Answer: B
Solve 3 over 2 * w = 66.
(A) 33, (B) 44, (C) 88, (D) 99
Answer: B
Write 5.875 as a mixed number or fraction in simplest form.
(A) 5 and 8 over 9, (B) 5 and 7 over 8, (C) 7 over 8, (D) 5 and 87 over 105
Answer: B
Solve the equation 124 = m + 34.
(A) 158, (B) 90, (C) 88, (D) 4,216
Answer: B
Zelma buys p pounds of bananas for 40 cents per pound. She pays the clerk with a twenty-dollar bill. The clerk subtracts the total cost of the bananas from the twenty-dollar bill to determine the amount of change to give Zelma. Which expression represents the amount of change Zelma should receive?
(A) p - 20, (B) 20 - 40p, (C) 20 - 0.40p, (D) 0.40p - 20
Answer: C
Please answer the following question with just the correct option (A, B, C, or D) without any explanation or additional text.
John noticed that the angle formed by the minute hand and hour hand on a standard 12-hour clock was 110 degrees when he left home after 6 p.m.; it was also 110 degrees when he returned after 6 p.m. but before 7 p.m. that same night. If he left home for more than five minutes, for how many minutes was he away?
(A) '36', (B) '40', (C) '38', (D) '43'
Answer:","","","","","","","","","","","","","","","","","","","","","","feedback_imgs/Incorrect.png"
"call-function","39","626853","0.0-4.0-0.10","6gcvdqnh6082gj9","671c727b78c1624a723eade1","67b62c430b9240ccd8986e70","67b632b10db5d521b68c10d7","4","","","","","","defer","Which of the following sets has the greatest cardinality?","[""R"",""The set of all functions from Z to Z"",""The set of all functions from R to {0, 1}"",""The set of all finite subsets of R""]","C","C","modiste","","C","280","algLinUCB_0.9","diff-topics","college_mathematics","The following are multiple choice questions about high_school_mathematics.
Colton and his dad bought a gallon of paint that cost $13. They also bought 2 brushes that cost $9 each. What was the total cost, not including tax, of the brushes and the paint they bought?
(A) $22, (B) $24, (C) $31, (D) $35
Answer: C
Solve for y. y – 2 + 3y = 10
(A) 2, (B) 3, (C) 4, (D) 5
Answer: B
Solve 3 over 2 * w = 66.
(A) 33, (B) 44, (C) 88, (D) 99
Answer: B
Write 5.875 as a mixed number or fraction in simplest form.
(A) 5 and 8 over 9, (B) 5 and 7 over 8, (C) 7 over 8, (D) 5 and 87 over 105
Answer: B
Solve the equation 124 = m + 34.
(A) 158, (B) 90, (C) 88, (D) 4,216
Answer: B
Zelma buys p pounds of bananas for 40 cents per pound. She pays the clerk with a twenty-dollar bill. The clerk subtracts the total cost of the bananas from the twenty-dollar bill to determine the amount of change to give Zelma. Which expression represents the amount of change Zelma should receive?
(A) p - 20, (B) 20 - 40p, (C) 20 - 0.40p, (D) 0.40p - 20
Answer: C
Please answer the following question with just the correct option (A, B, C, or D) without any explanation or additional text.
Which of the following sets has the greatest cardinality?
(A) 'R', (B) 'The set of all functions from Z to Z', (C) 'The set of all functions from R to {0, 1}', (D) 'The set of all finite subsets of R'
Answer:","","","","","","","","","","","","true","2","","","","","","","","",""
"survey-html-form","40","644610","0.0-4.0-1.10","6gcvdqnh6082gj9","671c727b78c1624a723eade1","67b62c430b9240ccd8986e70","67b632b10db5d521b68c10d7","4","17754","","","{""mcAnswer"":""C""}","","","Which of the following sets has the greatest cardinality?","[""R"",""The set of all functions from Z to Z"",""The set of all functions from R to {0, 1}"",""The set of all finite subsets of R""]","C","C","modiste","","C","280","algLinUCB_0.9","diff-topics","college_mathematics","The following are multiple choice questions about high_school_mathematics.
Colton and his dad bought a gallon of paint that cost $13. They also bought 2 brushes that cost $9 each. What was the total cost, not including tax, of the brushes and the paint they bought?
(A) $22, (B) $24, (C) $31, (D) $35
Answer: C
Solve for y. y – 2 + 3y = 10
(A) 2, (B) 3, (C) 4, (D) 5
Answer: B
Solve 3 over 2 * w = 66.
(A) 33, (B) 44, (C) 88, (D) 99
Answer: B
Write 5.875 as a mixed number or fraction in simplest form.
(A) 5 and 8 over 9, (B) 5 and 7 over 8, (C) 7 over 8, (D) 5 and 87 over 105
Answer: B
Solve the equation 124 = m + 34.
(A) 158, (B) 90, (C) 88, (D) 4,216
Answer: B
Zelma buys p pounds of bananas for 40 cents per pound. She pays the clerk with a twenty-dollar bill. The clerk subtracts the total cost of the bananas from the twenty-dollar bill to determine the amount of change to give Zelma. Which expression represents the amount of change Zelma should receive?
(A) p - 20, (B) 20 - 40p, (C) 20 - 0.40p, (D) 0.40p - 20
Answer: C
Please answer the following question with just the correct option (A, B, C, or D) without any explanation or additional text.
Which of the following sets has the greatest cardinality?
(A) 'R', (B) 'The set of all functions from Z to Z', (C) 'The set of all functions from R to {0, 1}', (D) 'The set of all finite subsets of R'
Answer:","","","","","","","","","","","","","","","","","","","","","",""
"","","","","","","","","","","","","","","","","","","","","","","","","","","","C","","","","","","","","","","","","","","","","","","","","",""
"","","","","","","","","","","","","","","","","","","","","","","","","","","","","false","129","-1","C","true","true","defer","[]","false","0","true","2","{""elementary_mathematics"":[""44/54"",""31/50"",""4/6""],""high_school_mathematics"":[""28/52"",""22/50"",""3/6""],""college_mathematics"":[""22/50"",""29/53"",""2 / 5""]}","{""elementary_mathematics"":false,""college_mathematics"":false,""high_school_mathematics"":false}","You should outsource this problem to the AI agent","false","null","true","null","null",""
"image-keyboard-response","41","646115","0.0-4.0-2.10","6gcvdqnh6082gj9","671c727b78c1624a723eade1","67b62c430b9240ccd8986e70","67b632b10db5d521b68c10d7","4","null","","","null","","","Which of the following sets has the greatest cardinality?","[""R"",""The set of all functions from Z to Z"",""The set of all functions from R to {0, 1}"",""The set of all finite subsets of R""]","C","C","modiste","","C","280","algLinUCB_0.9","diff-topics","college_mathematics","The following are multiple choice questions about high_school_mathematics.
Colton and his dad bought a gallon of paint that cost $13. They also bought 2 brushes that cost $9 each. What was the total cost, not including tax, of the brushes and the paint they bought?
(A) $22, (B) $24, (C) $31, (D) $35
Answer: C
Solve for y. y – 2 + 3y = 10
(A) 2, (B) 3, (C) 4, (D) 5
Answer: B
Solve 3 over 2 * w = 66.
(A) 33, (B) 44, (C) 88, (D) 99
Answer: B
Write 5.875 as a mixed number or fraction in simplest form.
(A) 5 and 8 over 9, (B) 5 and 7 over 8, (C) 7 over 8, (D) 5 and 87 over 105
Answer: B
Solve the equation 124 = m + 34.
(A) 158, (B) 90, (C) 88, (D) 4,216
Answer: B
Zelma buys p pounds of bananas for 40 cents per pound. She pays the clerk with a twenty-dollar bill. The clerk subtracts the total cost of the bananas from the twenty-dollar bill to determine the amount of change to give Zelma. Which expression represents the amount of change Zelma should receive?
(A) p - 20, (B) 20 - 40p, (C) 20 - 0.40p, (D) 0.40p - 20
Answer: C
Please answer the following question with just the correct option (A, B, C, or D) without any explanation or additional text.
Which of the following sets has the greatest cardinality?
(A) 'R', (B) 'The set of all functions from Z to Z', (C) 'The set of all functions from R to {0, 1}', (D) 'The set of all finite subsets of R'
Answer:","","","","","","","","","","","","","","","","","","","","","","feedback_imgs/Correct.png"
"call-function","42","646116","0.0-4.0-0.11","6gcvdqnh6082gj9","671c727b78c1624a723eade1","67b62c430b9240ccd8986e70","67b632b10db5d521b68c10d7","4","","","","","","defer","The map x -> axa^2 of a group G into itself is a homomorphism if and only if","[""G is abelian"",""G = {e}"",""a^3 = e"",""a^2 = a""]","A","A","modiste","","C","289","algLinUCB_0.9","diff-topics","college_mathematics","The following are multiple choice questions about high_school_mathematics.
Colton and his dad bought a gallon of paint that cost $13. They also bought 2 brushes that cost $9 each. What was the total cost, not including tax, of the brushes and the paint they bought?
(A) $22, (B) $24, (C) $31, (D) $35
Answer: C
Solve for y. y – 2 + 3y = 10
(A) 2, (B) 3, (C) 4, (D) 5
Answer: B
Solve 3 over 2 * w = 66.
(A) 33, (B) 44, (C) 88, (D) 99
Answer: B
Write 5.875 as a mixed number or fraction in simplest form.
(A) 5 and 8 over 9, (B) 5 and 7 over 8, (C) 7 over 8, (D) 5 and 87 over 105
Answer: B
Solve the equation 124 = m + 34.
(A) 158, (B) 90, (C) 88, (D) 4,216
Answer: B
Zelma buys p pounds of bananas for 40 cents per pound. She pays the clerk with a twenty-dollar bill. The clerk subtracts the total cost of the bananas from the twenty-dollar bill to determine the amount of change to give Zelma. Which expression represents the amount of change Zelma should receive?
(A) p - 20, (B) 20 - 40p, (C) 20 - 0.40p, (D) 0.40p - 20
Answer: C
Please answer the following question with just the correct option (A, B, C, or D) without any explanation or additional text.
The map x -> axa^2 of a group G into itself is a homomorphism if and only if
(A) 'G is abelian', (B) 'G = {e}', (C) 'a^3 = e', (D) 'a^2 = a'
Answer:","","","","","","","","","","","","true","2","","","","","","","","",""
"survey-html-form","43","660470","0.0-4.0-1.11","6gcvdqnh6082gj9","671c727b78c1624a723eade1","67b62c430b9240ccd8986e70","67b632b10db5d521b68c10d7","4","14352","","","{""mcAnswer"":""A""}","","","The map x -> axa^2 of a group G into itself is a homomorphism if and only if","[""G is abelian"",""G = {e}"",""a^3 = e"",""a^2 = a""]","A","A","modiste","","C","289","algLinUCB_0.9","diff-topics","college_mathematics","The following are multiple choice questions about high_school_mathematics.
Colton and his dad bought a gallon of paint that cost $13. They also bought 2 brushes that cost $9 each. What was the total cost, not including tax, of the brushes and the paint they bought?
(A) $22, (B) $24, (C) $31, (D) $35
Answer: C
Solve for y. y – 2 + 3y = 10
(A) 2, (B) 3, (C) 4, (D) 5
Answer: B
Solve 3 over 2 * w = 66.
(A) 33, (B) 44, (C) 88, (D) 99
Answer: B
Write 5.875 as a mixed number or fraction in simplest form.
(A) 5 and 8 over 9, (B) 5 and 7 over 8, (C) 7 over 8, (D) 5 and 87 over 105
Answer: B
Solve the equation 124 = m + 34.
(A) 158, (B) 90, (C) 88, (D) 4,216
Answer: B
Zelma buys p pounds of bananas for 40 cents per pound. She pays the clerk with a twenty-dollar bill. The clerk subtracts the total cost of the bananas from the twenty-dollar bill to determine the amount of change to give Zelma. Which expression represents the amount of change Zelma should receive?
(A) p - 20, (B) 20 - 40p, (C) 20 - 0.40p, (D) 0.40p - 20
Answer: C
Please answer the following question with just the correct option (A, B, C, or D) without any explanation or additional text.
The map x -> axa^2 of a group G into itself is a homomorphism if and only if
(A) 'G is abelian', (B) 'G = {e}', (C) 'a^3 = e', (D) 'a^2 = a'
Answer:","","","","","","","","","","","","","","","","","","","","","",""
"","","","","","","","","","","","","","","","","","","","","","","","","","","","A","","","","","","","","","","","","","","","","","","","","",""
"","","","","","","","","","","","","","","","","","","","","","","","","","","","","false","126","-1","A","false","false","defer","[]","false","0","true","2","{""elementary_mathematics"":[""44/54"",""31/50"",""4/6""],""high_school_mathematics"":[""28/52"",""22/50"",""3/6""],""college_mathematics"":[""22/50"",""29/54"",""2 / 5""]}","{""elementary_mathematics"":false,""college_mathematics"":false,""high_school_mathematics"":false}","You should outsource this problem to the AI agent","false","null","true","null","null",""
"image-keyboard-response","44","661975","0.0-4.0-2.11","6gcvdqnh6082gj9","671c727b78c1624a723eade1","67b62c430b9240ccd8986e70","67b632b10db5d521b68c10d7","4","null","","","null","","","The map x -> axa^2 of a group G into itself is a homomorphism if and only if","[""G is abelian"",""G = {e}"",""a^3 = e"",""a^2 = a""]","A","A","modiste","","C","289","algLinUCB_0.9","diff-topics","college_mathematics","The following are multiple choice questions about high_school_mathematics.
Colton and his dad bought a gallon of paint that cost $13. They also bought 2 brushes that cost $9 each. What was the total cost, not including tax, of the brushes and the paint they bought?
(A) $22, (B) $24, (C) $31, (D) $35
Answer: C
Solve for y. y – 2 + 3y = 10
(A) 2, (B) 3, (C) 4, (D) 5
Answer: B
Solve 3 over 2 * w = 66.
(A) 33, (B) 44, (C) 88, (D) 99
Answer: B
Write 5.875 as a mixed number or fraction in simplest form.
(A) 5 and 8 over 9, (B) 5 and 7 over 8, (C) 7 over 8, (D) 5 and 87 over 105
Answer: B
Solve the equation 124 = m + 34.
(A) 158, (B) 90, (C) 88, (D) 4,216
Answer: B
Zelma buys p pounds of bananas for 40 cents per pound. She pays the clerk with a twenty-dollar bill. The clerk subtracts the total cost of the bananas from the twenty-dollar bill to determine the amount of change to give Zelma. Which expression represents the amount of change Zelma should receive?
(A) p - 20, (B) 20 - 40p, (C) 20 - 0.40p, (D) 0.40p - 20
Answer: C
Please answer the following question with just the correct option (A, B, C, or D) without any explanation or additional text.
The map x -> axa^2 of a group G into itself is a homomorphism if and only if
(A) 'G is abelian', (B) 'G = {e}', (C) 'a^3 = e', (D) 'a^2 = a'
Answer:","","","","","","","","","","","","","","","","","","","","","","feedback_imgs/Incorrect.png"
"call-function","45","661976","0.0-4.0-0.12","6gcvdqnh6082gj9","671c727b78c1624a723eade1","67b62c430b9240ccd8986e70","67b632b10db5d521b68c10d7","4","","","","","","defer","Which statement is true?","[""If f(x) is continuous at x = c, then f′(c) exists."",""If f′(c) = 0, then f has a local maximum or minimum at (c, f (c))."",""If f′′(c) = 0, then the graph of f has an inflection point at (c, f (c))."",""If f is differentiable at x = c, then f is continuous at x = c.""]","D","D","modiste","","D","241","algLinUCB_0.9","diff-topics","high_school_mathematics","The following are multiple choice questions about high_school_mathematics.
Colton and his dad bought a gallon of paint that cost $13. They also bought 2 brushes that cost $9 each. What was the total cost, not including tax, of the brushes and the paint they bought?
(A) $22, (B) $24, (C) $31, (D) $35
Answer: C
Solve for y. y – 2 + 3y = 10
(A) 2, (B) 3, (C) 4, (D) 5
Answer: B
Solve 3 over 2 * w = 66.
(A) 33, (B) 44, (C) 88, (D) 99
Answer: B
Write 5.875 as a mixed number or fraction in simplest form.
(A) 5 and 8 over 9, (B) 5 and 7 over 8, (C) 7 over 8, (D) 5 and 87 over 105
Answer: B
Solve the equation 124 = m + 34.
(A) 158, (B) 90, (C) 88, (D) 4,216
Answer: B
Zelma buys p pounds of bananas for 40 cents per pound. She pays the clerk with a twenty-dollar bill. The clerk subtracts the total cost of the bananas from the twenty-dollar bill to determine the amount of change to give Zelma. Which expression represents the amount of change Zelma should receive?
(A) p - 20, (B) 20 - 40p, (C) 20 - 0.40p, (D) 0.40p - 20
Answer: C
Please answer the following question with just the correct option (A, B, C, or D) without any explanation or additional text.
Which statement is true?
(A) 'If f(x) is continuous at x = c, then f′(c) exists.', (B) 'If f′(c) = 0, then f has a local maximum or minimum at (c, f (c)).', (C) 'If f′′(c) = 0, then the graph of f has an inflection point at (c, f (c)).', (D) 'If f is differentiable at x = c, then f is continuous at x = c.'
Answer:","","","","","","","","","","true","2","","","","","","","","","","",""
"survey-html-form","46","679523","0.0-4.0-1.12","6gcvdqnh6082gj9","671c727b78c1624a723eade1","67b62c430b9240ccd8986e70","67b632b10db5d521b68c10d7","4","17543","","","{""mcAnswer"":""D""}","","","Which statement is true?","[""If f(x) is continuous at x = c, then f′(c) exists."",""If f′(c) = 0, then f has a local maximum or minimum at (c, f (c))."",""If f′′(c) = 0, then the graph of f has an inflection point at (c, f (c))."",""If f is differentiable at x = c, then f is continuous at x = c.""]","D","D","modiste","","D","241","algLinUCB_0.9","diff-topics","high_school_mathematics","The following are multiple choice questions about high_school_mathematics.
Colton and his dad bought a gallon of paint that cost $13. They also bought 2 brushes that cost $9 each. What was the total cost, not including tax, of the brushes and the paint they bought?
(A) $22, (B) $24, (C) $31, (D) $35
Answer: C
Solve for y. y – 2 + 3y = 10
(A) 2, (B) 3, (C) 4, (D) 5
Answer: B
Solve 3 over 2 * w = 66.
(A) 33, (B) 44, (C) 88, (D) 99
Answer: B
Write 5.875 as a mixed number or fraction in simplest form.
(A) 5 and 8 over 9, (B) 5 and 7 over 8, (C) 7 over 8, (D) 5 and 87 over 105
Answer: B
Solve the equation 124 = m + 34.
(A) 158, (B) 90, (C) 88, (D) 4,216
Answer: B
Zelma buys p pounds of bananas for 40 cents per pound. She pays the clerk with a twenty-dollar bill. The clerk subtracts the total cost of the bananas from the twenty-dollar bill to determine the amount of change to give Zelma. Which expression represents the amount of change Zelma should receive?
(A) p - 20, (B) 20 - 40p, (C) 20 - 0.40p, (D) 0.40p - 20
Answer: C
Please answer the following question with just the correct option (A, B, C, or D) without any explanation or additional text.
Which statement is true?
(A) 'If f(x) is continuous at x = c, then f′(c) exists.', (B) 'If f′(c) = 0, then f has a local maximum or minimum at (c, f (c)).', (C) 'If f′′(c) = 0, then the graph of f has an inflection point at (c, f (c)).', (D) 'If f is differentiable at x = c, then f is continuous at x = c.'
Answer:","","","","","","","","","","","","","","","","","","","","","",""
"","","","","","","","","","","","","","","","","","","","","","","","","","","","D","","","","","","","","","","","","","","","","","","","","",""
"","","","","","","","","","","","","","","","","","","","","","","","","","","","","false","129","-1","D","true","true","defer","[]","true","2","false","0","{""elementary_mathematics"":[""44/54"",""31/50"",""4/6""],""high_school_mathematics"":[""29/53"",""22/50"",""3/6""],""college_mathematics"":[""22/50"",""29/54"",""2 / 5""]}","{""elementary_mathematics"":false,""college_mathematics"":false,""high_school_mathematics"":false}","You should outsource this problem to a human agent","null","false","null","true","null",""
"image-keyboard-response","47","681028","0.0-4.0-2.12","6gcvdqnh6082gj9","671c727b78c1624a723eade1","67b62c430b9240ccd8986e70","67b632b10db5d521b68c10d7","4","null","","","null","","","Which statement is true?","[""If f(x) is continuous at x = c, then f′(c) exists."",""If f′(c) = 0, then f has a local maximum or minimum at (c, f (c))."",""If f′′(c) = 0, then the graph of f has an inflection point at (c, f (c))."",""If f is differentiable at x = c, then f is continuous at x = c.""]","D","D","modiste","","D","241","algLinUCB_0.9","diff-topics","high_school_mathematics","The following are multiple choice questions about high_school_mathematics.
Colton and his dad bought a gallon of paint that cost $13. They also bought 2 brushes that cost $9 each. What was the total cost, not including tax, of the brushes and the paint they bought?
(A) $22, (B) $24, (C) $31, (D) $35
Answer: C
Solve for y. y – 2 + 3y = 10
(A) 2, (B) 3, (C) 4, (D) 5
Answer: B
Solve 3 over 2 * w = 66.
(A) 33, (B) 44, (C) 88, (D) 99
Answer: B
Write 5.875 as a mixed number or fraction in simplest form.
(A) 5 and 8 over 9, (B) 5 and 7 over 8, (C) 7 over 8, (D) 5 and 87 over 105
Answer: B
Solve the equation 124 = m + 34.
(A) 158, (B) 90, (C) 88, (D) 4,216
Answer: B
Zelma buys p pounds of bananas for 40 cents per pound. She pays the clerk with a twenty-dollar bill. The clerk subtracts the total cost of the bananas from the twenty-dollar bill to determine the amount of change to give Zelma. Which expression represents the amount of change Zelma should receive?
(A) p - 20, (B) 20 - 40p, (C) 20 - 0.40p, (D) 0.40p - 20
Answer: C
Please answer the following question with just the correct option (A, B, C, or D) without any explanation or additional text.
Which statement is true?
(A) 'If f(x) is continuous at x = c, then f′(c) exists.', (B) 'If f′(c) = 0, then f has a local maximum or minimum at (c, f (c)).', (C) 'If f′′(c) = 0, then the graph of f has an inflection point at (c, f (c)).', (D) 'If f is differentiable at x = c, then f is continuous at x = c.'
Answer:","","","","","","","","","","","","","","","","","","","","","","feedback_imgs/Correct.png"
"call-function","48","681030","0.0-4.0-0.13","6gcvdqnh6082gj9","671c727b78c1624a723eade1","67b62c430b9240ccd8986e70","67b632b10db5d521b68c10d7","4","","","","","","defer","For which of the following rings is it possible for the product of two nonzero elements to be zero?","[""The ring of complex numbers"",""The ring of integers modulo 11"",""The ring of continuous real-valued functions on [0, 1]"",""The ring {a + b * sqrt(2) : a and b are rational numbers}""]","D","C","modiste","","C","288","algLinUCB_0.9","diff-topics","college_mathematics","The following are multiple choice questions about high_school_mathematics.
Colton and his dad bought a gallon of paint that cost $13. They also bought 2 brushes that cost $9 each. What was the total cost, not including tax, of the brushes and the paint they bought?
(A) $22, (B) $24, (C) $31, (D) $35
Answer: C
Solve for y. y – 2 + 3y = 10
(A) 2, (B) 3, (C) 4, (D) 5
Answer: B
Solve 3 over 2 * w = 66.
(A) 33, (B) 44, (C) 88, (D) 99
Answer: B
Write 5.875 as a mixed number or fraction in simplest form.
(A) 5 and 8 over 9, (B) 5 and 7 over 8, (C) 7 over 8, (D) 5 and 87 over 105
Answer: B
Solve the equation 124 = m + 34.
(A) 158, (B) 90, (C) 88, (D) 4,216
Answer: B
Zelma buys p pounds of bananas for 40 cents per pound. She pays the clerk with a twenty-dollar bill. The clerk subtracts the total cost of the bananas from the twenty-dollar bill to determine the amount of change to give Zelma. Which expression represents the amount of change Zelma should receive?
(A) p - 20, (B) 20 - 40p, (C) 20 - 0.40p, (D) 0.40p - 20
Answer: C
Please answer the following question with just the correct option (A, B, C, or D) without any explanation or additional text.
For which of the following rings is it possible for the product of two nonzero elements to be zero?
(A) 'The ring of complex numbers', (B) 'The ring of integers modulo 11', (C) 'The ring of continuous real-valued functions on [0, 1]', (D) 'The ring {a + b * sqrt(2) : a and b are rational numbers}'
Answer:","","","","","","","","","","","","true","2","","","","","","","","",""
"survey-html-form","49","699039","0.0-4.0-1.13","6gcvdqnh6082gj9","671c727b78c1624a723eade1","67b62c430b9240ccd8986e70","67b632b10db5d521b68c10d7","4","18007","","","{""mcAnswer"":""D""}","","","For which of the following rings is it possible for the product of two nonzero elements to be zero?","[""The ring of complex numbers"",""The ring of integers modulo 11"",""The ring of continuous real-valued functions on [0, 1]"",""The ring {a + b * sqrt(2) : a and b are rational numbers}""]","D","C","modiste","","C","288","algLinUCB_0.9","diff-topics","college_mathematics","The following are multiple choice questions about high_school_mathematics.
Colton and his dad bought a gallon of paint that cost $13. They also bought 2 brushes that cost $9 each. What was the total cost, not including tax, of the brushes and the paint they bought?
(A) $22, (B) $24, (C) $31, (D) $35
Answer: C
Solve for y. y – 2 + 3y = 10
(A) 2, (B) 3, (C) 4, (D) 5
Answer: B
Solve 3 over 2 * w = 66.
(A) 33, (B) 44, (C) 88, (D) 99
Answer: B
Write 5.875 as a mixed number or fraction in simplest form.
(A) 5 and 8 over 9, (B) 5 and 7 over 8, (C) 7 over 8, (D) 5 and 87 over 105
Answer: B
Solve the equation 124 = m + 34.
(A) 158, (B) 90, (C) 88, (D) 4,216
Answer: B
Zelma buys p pounds of bananas for 40 cents per pound. She pays the clerk with a twenty-dollar bill. The clerk subtracts the total cost of the bananas from the twenty-dollar bill to determine the amount of change to give Zelma. Which expression represents the amount of change Zelma should receive?
(A) p - 20, (B) 20 - 40p, (C) 20 - 0.40p, (D) 0.40p - 20
Answer: C
Please answer the following question with just the correct option (A, B, C, or D) without any explanation or additional text.
For which of the following rings is it possible for the product of two nonzero elements to be zero?
(A) 'The ring of complex numbers', (B) 'The ring of integers modulo 11', (C) 'The ring of continuous real-valued functions on [0, 1]', (D) 'The ring {a + b * sqrt(2) : a and b are rational numbers}'
Answer:","","","","","","","","","","","","","","","","","","","","","",""
"","","","","","","","","","","","","","","","","","","","","","","","","","","","D","","","","","","","","","","","","","","","","","","","","",""
"","","","","","","","","","","","","","","","","","","","","","","","","","","","","false","126","-1","D","false","false","defer","[]","false","0","true","2","{""elementary_mathematics"":[""44/54"",""31/50"",""4/6""],""high_school_mathematics"":[""29/53"",""22/50"",""3/6""],""college_mathematics"":[""22/50"",""29/55"",""2 / 5""]}","{""elementary_mathematics"":false,""college_mathematics"":false,""high_school_mathematics"":false}","You should outsource this problem to the AI agent","false","null","true","null","null",""
"image-keyboard-response","50","700545","0.0-4.0-2.13","6gcvdqnh6082gj9","671c727b78c1624a723eade1","67b62c430b9240ccd8986e70","67b632b10db5d521b68c10d7","4","null","","","null","","","For which of the following rings is it possible for the product of two nonzero elements to be zero?","[""The ring of complex numbers"",""The ring of integers modulo 11"",""The ring of continuous real-valued functions on [0, 1]"",""The ring {a + b * sqrt(2) : a and b are rational numbers}""]","D","C","modiste","","C","288","algLinUCB_0.9","diff-topics","college_mathematics","The following are multiple choice questions about high_school_mathematics.
Colton and his dad bought a gallon of paint that cost $13. They also bought 2 brushes that cost $9 each. What was the total cost, not including tax, of the brushes and the paint they bought?
(A) $22, (B) $24, (C) $31, (D) $35
Answer: C
Solve for y. y – 2 + 3y = 10
(A) 2, (B) 3, (C) 4, (D) 5
Answer: B
Solve 3 over 2 * w = 66.
(A) 33, (B) 44, (C) 88, (D) 99
Answer: B
Write 5.875 as a mixed number or fraction in simplest form.
(A) 5 and 8 over 9, (B) 5 and 7 over 8, (C) 7 over 8, (D) 5 and 87 over 105
Answer: B
Solve the equation 124 = m + 34.
(A) 158, (B) 90, (C) 88, (D) 4,216
Answer: B
Zelma buys p pounds of bananas for 40 cents per pound. She pays the clerk with a twenty-dollar bill. The clerk subtracts the total cost of the bananas from the twenty-dollar bill to determine the amount of change to give Zelma. Which expression represents the amount of change Zelma should receive?
(A) p - 20, (B) 20 - 40p, (C) 20 - 0.40p, (D) 0.40p - 20
Answer: C
Please answer the following question with just the correct option (A, B, C, or D) without any explanation or additional text.
For which of the following rings is it possible for the product of two nonzero elements to be zero?
(A) 'The ring of complex numbers', (B) 'The ring of integers modulo 11', (C) 'The ring of continuous real-valued functions on [0, 1]', (D) 'The ring {a + b * sqrt(2) : a and b are rational numbers}'
Answer:","","","","","","","","","","","","","","","","","","","","","","feedback_imgs/Incorrect.png"
"call-function","51","700546","0.0-4.0-0.14","6gcvdqnh6082gj9","671c727b78c1624a723eade1","67b62c430b9240ccd8986e70","67b632b10db5d521b68c10d7","4","","","","","","defer","Let S be the subset of R^2 consisting of all points (x, y) in the unit square [0, 1] × [0, 1] for which x or y, or both, are irrational. With respect to the standard topology on R^2, S is","[""closed"",""open"",""connected"",""totally disconnected""]","D","D","modiste","","C","296","algLinUCB_0.9","diff-topics","college_mathematics","The following are multiple choice questions about high_school_mathematics.
Colton and his dad bought a gallon of paint that cost $13. They also bought 2 brushes that cost $9 each. What was the total cost, not including tax, of the brushes and the paint they bought?
(A) $22, (B) $24, (C) $31, (D) $35
Answer: C
Solve for y. y – 2 + 3y = 10
(A) 2, (B) 3, (C) 4, (D) 5
Answer: B
Solve 3 over 2 * w = 66.
(A) 33, (B) 44, (C) 88, (D) 99
Answer: B
Write 5.875 as a mixed number or fraction in simplest form.
(A) 5 and 8 over 9, (B) 5 and 7 over 8, (C) 7 over 8, (D) 5 and 87 over 105
Answer: B
Solve the equation 124 = m + 34.
(A) 158, (B) 90, (C) 88, (D) 4,216
Answer: B
Zelma buys p pounds of bananas for 40 cents per pound. She pays the clerk with a twenty-dollar bill. The clerk subtracts the total cost of the bananas from the twenty-dollar bill to determine the amount of change to give Zelma. Which expression represents the amount of change Zelma should receive?
(A) p - 20, (B) 20 - 40p, (C) 20 - 0.40p, (D) 0.40p - 20
Answer: C
Please answer the following question with just the correct option (A, B, C, or D) without any explanation or additional text.
Let S be the subset of R^2 consisting of all points (x, y) in the unit square [0, 1] × [0, 1] for which x or y, or both, are irrational. With respect to the standard topology on R^2, S is
(A) 'closed', (B) 'open', (C) 'connected', (D) 'totally disconnected'
Answer:","","","","","","","","","","","","true","2","","","","","","","","",""
"survey-html-form","52","714487","0.0-4.0-1.14","6gcvdqnh6082gj9","671c727b78c1624a723eade1","67b62c430b9240ccd8986e70","67b632b10db5d521b68c10d7","4","13939","","","{""mcAnswer"":""D""}","","","Let S be the subset of R^2 consisting of all points (x, y) in the unit square [0, 1] × [0, 1] for which x or y, or both, are irrational. With respect to the standard topology on R^2, S is","[""closed"",""open"",""connected"",""totally disconnected""]","D","D","modiste","","C","296","algLinUCB_0.9","diff-topics","college_mathematics","The following are multiple choice questions about high_school_mathematics.
Colton and his dad bought a gallon of paint that cost $13. They also bought 2 brushes that cost $9 each. What was the total cost, not including tax, of the brushes and the paint they bought?
(A) $22, (B) $24, (C) $31, (D) $35
Answer: C
Solve for y. y – 2 + 3y = 10
(A) 2, (B) 3, (C) 4, (D) 5
Answer: B
Solve 3 over 2 * w = 66.
(A) 33, (B) 44, (C) 88, (D) 99
Answer: B
Write 5.875 as a mixed number or fraction in simplest form.
(A) 5 and 8 over 9, (B) 5 and 7 over 8, (C) 7 over 8, (D) 5 and 87 over 105
Answer: B
Solve the equation 124 = m + 34.
(A) 158, (B) 90, (C) 88, (D) 4,216
Answer: B
Zelma buys p pounds of bananas for 40 cents per pound. She pays the clerk with a twenty-dollar bill. The clerk subtracts the total cost of the bananas from the twenty-dollar bill to determine the amount of change to give Zelma. Which expression represents the amount of change Zelma should receive?
(A) p - 20, (B) 20 - 40p, (C) 20 - 0.40p, (D) 0.40p - 20
Answer: C
Please answer the following question with just the correct option (A, B, C, or D) without any explanation or additional text.
Let S be the subset of R^2 consisting of all points (x, y) in the unit square [0, 1] × [0, 1] for which x or y, or both, are irrational. With respect to the standard topology on R^2, S is
(A) 'closed', (B) 'open', (C) 'connected', (D) 'totally disconnected'
Answer:","","","","","","","","","","","","","","","","","","","","","",""
"","","","","","","","","","","","","","","","","","","","","","","","","","","","D","","","","","","","","","","","","","","","","","","","","",""
"","","","","","","","","","","","","","","","","","","","","","","","","","","","","false","123","-1","D","false","false","defer","[]","false","0","true","2","{""elementary_mathematics"":[""44/54"",""31/50"",""4/6""],""high_school_mathematics"":[""29/53"",""22/50"",""3/6""],""college_mathematics"":[""22/50"",""29/56"",""2 / 5""]}","{""elementary_mathematics"":false,""college_mathematics"":false,""high_school_mathematics"":false}","You should outsource this problem to the AI agent","false","null","true","null","null",""
"image-keyboard-response","53","715992","0.0-4.0-2.14","6gcvdqnh6082gj9","671c727b78c1624a723eade1","67b62c430b9240ccd8986e70","67b632b10db5d521b68c10d7","4","null","","","null","","","Let S be the subset of R^2 consisting of all points (x, y) in the unit square [0, 1] × [0, 1] for which x or y, or both, are irrational. With respect to the standard topology on R^2, S is","[""closed"",""open"",""connected"",""totally disconnected""]","D","D","modiste","","C","296","algLinUCB_0.9","diff-topics","college_mathematics","The following are multiple choice questions about high_school_mathematics.
Colton and his dad bought a gallon of paint that cost $13. They also bought 2 brushes that cost $9 each. What was the total cost, not including tax, of the brushes and the paint they bought?
(A) $22, (B) $24, (C) $31, (D) $35
Answer: C
Solve for y. y – 2 + 3y = 10
(A) 2, (B) 3, (C) 4, (D) 5
Answer: B
Solve 3 over 2 * w = 66.
(A) 33, (B) 44, (C) 88, (D) 99
Answer: B
