"trial_type","trial_index","time_elapsed","internal_node_id","subject","prolific_id","study_id","session_id","condition","rt","url","view_history","response","question_order","value","question","options","llm_answer","population_answer","task","subj_id","label","example_id","variant","main_variant","topic","prompt","0","btn_clicked","score","timeToClick","modelPred","humanCorrect","modelCorrect","interfaceType","modelPredDist","human_support_used","human_support_clicks","llm_support_used","llm_support_clicks","recommendation_lists","incorrect_answers_by_category","recommendation","LLM_outsourcing_overridden","human_outsourcing_overridden","ai_orch_agreement","human_orch_agreement","self_orch_agreement","stimulus"
"pavlovia","0","3254","0.0-0.0","r9q5pcn38a7hzw5","67a7c801931fc920c139e3b8","67b62c430b9240ccd8986e70","67b6381c8493c69b9e6fa10c","2","","","","","","","","","","","","","","","","","","","","","","","","","","","","","","","","","","","","","","","",""
"external-html","1","118257","0.0-1.0","r9q5pcn38a7hzw5","67a7c801931fc920c139e3b8","67b62c430b9240ccd8986e70","67b6381c8493c69b9e6fa10c","2","114138","consent.html","","","","","","","","","","","","","","","","","","","","","","","","","","","","","","","","","","","","","",""
"instructions","2","748492","0.0-2.0-0.0","r9q5pcn38a7hzw5","67a7c801931fc920c139e3b8","67b62c430b9240ccd8986e70","67b6381c8493c69b9e6fa10c","2","630231","","[{""page_index"":0,""viewing_time"":332629},{""page_index"":1,""viewing_time"":50960},{""page_index"":2,""viewing_time"":14441},{""page_index"":3,""viewing_time"":20412},{""page_index"":4,""viewing_time"":45466},{""page_index"":5,""viewing_time"":20915},{""page_index"":6,""viewing_time"":137586},{""page_index"":7,""viewing_time"":7822}]","","","","","","","","","","","","","","","","","","","","","","","","","","","","","","","","","","","","",""
"survey-multi-choice","3","1214447","0.0-2.0-1.0","r9q5pcn38a7hzw5","67a7c801931fc920c139e3b8","67b62c430b9240ccd8986e70","67b6381c8493c69b9e6fa10c","2","465949","","","{""Q0"":""The answer to a mutliple choice question."",""Q1"":""Clicking on a radio button.""}","[0,1]","","","","","","","","","","","","","","","","","","","","","","","","","","","","","","","","","","",""
"instructions","4","1245591","0.0-3.0","r9q5pcn38a7hzw5","67a7c801931fc920c139e3b8","67b62c430b9240ccd8986e70","67b6381c8493c69b9e6fa10c","2","31141","","[{""page_index"":0,""viewing_time"":31141}]","","","","","","","","","","","","","","","","","","","","","","","","","","","","","","","","","","","","",""
"call-function","5","1245592","0.0-4.0-0.0","r9q5pcn38a7hzw5","67a7c801931fc920c139e3b8","67b62c430b9240ccd8986e70","67b6381c8493c69b9e6fa10c","2","","","","","","defer","What is the value of the expression 2(3(4^2 + 1)) - 2^3?","[""156"",""110"",""94"",""48""]","B","C","modiste","","C","143","algLinUCB_0.9","diff-topics","elementary_mathematics","The following are multiple choice questions about high_school_mathematics.
Colton and his dad bought a gallon of paint that cost $13. They also bought 2 brushes that cost $9 each. What was the total cost, not including tax, of the brushes and the paint they bought?
(A) $22, (B) $24, (C) $31, (D) $35
Answer: C
Solve for y. y – 2 + 3y = 10
(A) 2, (B) 3, (C) 4, (D) 5
Answer: B
Solve 3 over 2 * w = 66.
(A) 33, (B) 44, (C) 88, (D) 99
Answer: B
Write 5.875 as a mixed number or fraction in simplest form.
(A) 5 and 8 over 9, (B) 5 and 7 over 8, (C) 7 over 8, (D) 5 and 87 over 105
Answer: B
Solve the equation 124 = m + 34.
(A) 158, (B) 90, (C) 88, (D) 4,216
Answer: B
Zelma buys p pounds of bananas for 40 cents per pound. She pays the clerk with a twenty-dollar bill. The clerk subtracts the total cost of the bananas from the twenty-dollar bill to determine the amount of change to give Zelma. Which expression represents the amount of change Zelma should receive?
(A) p - 20, (B) 20 - 40p, (C) 20 - 0.40p, (D) 0.40p - 20
Answer: C
Please answer the following question with just the correct option (A, B, C, or D) without any explanation or additional text.
What is the value of the expression 2(3(4^2 + 1)) - 2^3?
(A) '156', (B) '110', (C) '94', (D) '48'
Answer:","","","","","","","","","","","","","","","","","","","","","",""
"survey-html-form","6","1369641","0.0-4.0-1.0","r9q5pcn38a7hzw5","67a7c801931fc920c139e3b8","67b62c430b9240ccd8986e70","67b6381c8493c69b9e6fa10c","2","124040","","","{""mcAnswer"":""C""}","","","What is the value of the expression 2(3(4^2 + 1)) - 2^3?","[""156"",""110"",""94"",""48""]","B","C","modiste","","C","143","algLinUCB_0.9","diff-topics","elementary_mathematics","The following are multiple choice questions about high_school_mathematics.
Colton and his dad bought a gallon of paint that cost $13. They also bought 2 brushes that cost $9 each. What was the total cost, not including tax, of the brushes and the paint they bought?
(A) $22, (B) $24, (C) $31, (D) $35
Answer: C
Solve for y. y – 2 + 3y = 10
(A) 2, (B) 3, (C) 4, (D) 5
Answer: B
Solve 3 over 2 * w = 66.
(A) 33, (B) 44, (C) 88, (D) 99
Answer: B
Write 5.875 as a mixed number or fraction in simplest form.
(A) 5 and 8 over 9, (B) 5 and 7 over 8, (C) 7 over 8, (D) 5 and 87 over 105
Answer: B
Solve the equation 124 = m + 34.
(A) 158, (B) 90, (C) 88, (D) 4,216
Answer: B
Zelma buys p pounds of bananas for 40 cents per pound. She pays the clerk with a twenty-dollar bill. The clerk subtracts the total cost of the bananas from the twenty-dollar bill to determine the amount of change to give Zelma. Which expression represents the amount of change Zelma should receive?
(A) p - 20, (B) 20 - 40p, (C) 20 - 0.40p, (D) 0.40p - 20
Answer: C
Please answer the following question with just the correct option (A, B, C, or D) without any explanation or additional text.
What is the value of the expression 2(3(4^2 + 1)) - 2^3?
(A) '156', (B) '110', (C) '94', (D) '48'
Answer:","","","","","","","","","","","","","","","","","","","","","",""
"","","","","","","","","","","","","","","","","","","","","","","","","","","","C","","","","","","","","","","","","","","","","","","","","",""
"","","","","","","","","","","","","","","","","","","","","","","","","","","","","false","110","-1","B","true","false","defer","[]","false","0","false","0","{""elementary_mathematics"":[""40/50"",""31/50"",""5/6""],""high_school_mathematics"":[""27/50"",""22/50"",""3 / 5""],""college_mathematics"":[""22/50"",""26/50"",""2 / 5""]}","{""elementary_mathematics"":false}","You should attempt this problem by yourself","null","null","null","null","true",""
"image-keyboard-response","7","1371155","0.0-4.0-2.0","r9q5pcn38a7hzw5","67a7c801931fc920c139e3b8","67b62c430b9240ccd8986e70","67b6381c8493c69b9e6fa10c","2","null","","","null","","","What is the value of the expression 2(3(4^2 + 1)) - 2^3?","[""156"",""110"",""94"",""48""]","B","C","modiste","","C","143","algLinUCB_0.9","diff-topics","elementary_mathematics","The following are multiple choice questions about high_school_mathematics.
Colton and his dad bought a gallon of paint that cost $13. They also bought 2 brushes that cost $9 each. What was the total cost, not including tax, of the brushes and the paint they bought?
(A) $22, (B) $24, (C) $31, (D) $35
Answer: C
Solve for y. y – 2 + 3y = 10
(A) 2, (B) 3, (C) 4, (D) 5
Answer: B
Solve 3 over 2 * w = 66.
(A) 33, (B) 44, (C) 88, (D) 99
Answer: B
Write 5.875 as a mixed number or fraction in simplest form.
(A) 5 and 8 over 9, (B) 5 and 7 over 8, (C) 7 over 8, (D) 5 and 87 over 105
Answer: B
Solve the equation 124 = m + 34.
(A) 158, (B) 90, (C) 88, (D) 4,216
Answer: B
Zelma buys p pounds of bananas for 40 cents per pound. She pays the clerk with a twenty-dollar bill. The clerk subtracts the total cost of the bananas from the twenty-dollar bill to determine the amount of change to give Zelma. Which expression represents the amount of change Zelma should receive?
(A) p - 20, (B) 20 - 40p, (C) 20 - 0.40p, (D) 0.40p - 20
Answer: C
Please answer the following question with just the correct option (A, B, C, or D) without any explanation or additional text.
What is the value of the expression 2(3(4^2 + 1)) - 2^3?
(A) '156', (B) '110', (C) '94', (D) '48'
Answer:","","","","","","","","","","","","","","","","","","","","","","feedback_imgs/Correct.png"
"call-function","8","1371156","0.0-4.0-0.1","r9q5pcn38a7hzw5","67a7c801931fc920c139e3b8","67b62c430b9240ccd8986e70","67b6381c8493c69b9e6fa10c","2","","","","","","defer","Let S be a compact topological space, let T be a topological space, and let f be a function from S onto T. Of the following conditions on f, which is the weakest condition sufficient to ensure the compactness of T?","[""f is a homeomorphism."",""f is continuous and one-to-one"",""f is continuous."",""f is one-to-one""]","C","B","modiste","","C","172","algLinUCB_0.9","diff-topics","college_mathematics","The following are multiple choice questions about high_school_mathematics.
Colton and his dad bought a gallon of paint that cost $13. They also bought 2 brushes that cost $9 each. What was the total cost, not including tax, of the brushes and the paint they bought?
(A) $22, (B) $24, (C) $31, (D) $35
Answer: C
Solve for y. y – 2 + 3y = 10
(A) 2, (B) 3, (C) 4, (D) 5
Answer: B
Solve 3 over 2 * w = 66.
(A) 33, (B) 44, (C) 88, (D) 99
Answer: B
Write 5.875 as a mixed number or fraction in simplest form.
(A) 5 and 8 over 9, (B) 5 and 7 over 8, (C) 7 over 8, (D) 5 and 87 over 105
Answer: B
Solve the equation 124 = m + 34.
(A) 158, (B) 90, (C) 88, (D) 4,216
Answer: B
Zelma buys p pounds of bananas for 40 cents per pound. She pays the clerk with a twenty-dollar bill. The clerk subtracts the total cost of the bananas from the twenty-dollar bill to determine the amount of change to give Zelma. Which expression represents the amount of change Zelma should receive?
(A) p - 20, (B) 20 - 40p, (C) 20 - 0.40p, (D) 0.40p - 20
Answer: C
Please answer the following question with just the correct option (A, B, C, or D) without any explanation or additional text.
Let S be a compact topological space, let T be a topological space, and let f be a function from S onto T. Of the following conditions on f, which is the weakest condition sufficient to ensure the compactness of T?
(A) 'f is a homeomorphism.', (B) 'f is continuous and one-to-one', (C) 'f is continuous.', (D) 'f is one-to-one'
Answer:","","","","","","","","","","","","","","","","","","","","","",""
"survey-html-form","9","1420721","0.0-4.0-1.1","r9q5pcn38a7hzw5","67a7c801931fc920c139e3b8","67b62c430b9240ccd8986e70","67b6381c8493c69b9e6fa10c","2","49561","","","{""mcAnswer"":""C""}","","","Let S be a compact topological space, let T be a topological space, and let f be a function from S onto T. Of the following conditions on f, which is the weakest condition sufficient to ensure the compactness of T?","[""f is a homeomorphism."",""f is continuous and one-to-one"",""f is continuous."",""f is one-to-one""]","C","B","modiste","","C","172","algLinUCB_0.9","diff-topics","college_mathematics","The following are multiple choice questions about high_school_mathematics.
Colton and his dad bought a gallon of paint that cost $13. They also bought 2 brushes that cost $9 each. What was the total cost, not including tax, of the brushes and the paint they bought?
(A) $22, (B) $24, (C) $31, (D) $35
Answer: C
Solve for y. y – 2 + 3y = 10
(A) 2, (B) 3, (C) 4, (D) 5
Answer: B
Solve 3 over 2 * w = 66.
(A) 33, (B) 44, (C) 88, (D) 99
Answer: B
Write 5.875 as a mixed number or fraction in simplest form.
(A) 5 and 8 over 9, (B) 5 and 7 over 8, (C) 7 over 8, (D) 5 and 87 over 105
Answer: B
Solve the equation 124 = m + 34.
(A) 158, (B) 90, (C) 88, (D) 4,216
Answer: B
Zelma buys p pounds of bananas for 40 cents per pound. She pays the clerk with a twenty-dollar bill. The clerk subtracts the total cost of the bananas from the twenty-dollar bill to determine the amount of change to give Zelma. Which expression represents the amount of change Zelma should receive?
(A) p - 20, (B) 20 - 40p, (C) 20 - 0.40p, (D) 0.40p - 20
Answer: C
Please answer the following question with just the correct option (A, B, C, or D) without any explanation or additional text.
Let S be a compact topological space, let T be a topological space, and let f be a function from S onto T. Of the following conditions on f, which is the weakest condition sufficient to ensure the compactness of T?
(A) 'f is a homeomorphism.', (B) 'f is continuous and one-to-one', (C) 'f is continuous.', (D) 'f is one-to-one'
Answer:","","","","","","","","","","","","","","","","","","","","","",""
"","","","","","","","","","","","","","","","","","","","","","","","","","","","C","","","","","","","","","","","","","","","","","","","","",""
"","","","","","","","","","","","","","","","","","","","","","","","","","","","","false","120","-1","C","true","true","defer","[]","false","0","false","0","{""elementary_mathematics"":[""40/50"",""31/50"",""5/6""],""high_school_mathematics"":[""27/50"",""22/50"",""3 / 5""],""college_mathematics"":[""22/50"",""26/50"",""3/6""]}","{""elementary_mathematics"":false,""college_mathematics"":false}","You should outsource this problem to the AI agent","null","null","false","null","null",""
"image-keyboard-response","10","1422230","0.0-4.0-2.1","r9q5pcn38a7hzw5","67a7c801931fc920c139e3b8","67b62c430b9240ccd8986e70","67b6381c8493c69b9e6fa10c","2","null","","","null","","","Let S be a compact topological space, let T be a topological space, and let f be a function from S onto T. Of the following conditions on f, which is the weakest condition sufficient to ensure the compactness of T?","[""f is a homeomorphism."",""f is continuous and one-to-one"",""f is continuous."",""f is one-to-one""]","C","B","modiste","","C","172","algLinUCB_0.9","diff-topics","college_mathematics","The following are multiple choice questions about high_school_mathematics.
Colton and his dad bought a gallon of paint that cost $13. They also bought 2 brushes that cost $9 each. What was the total cost, not including tax, of the brushes and the paint they bought?
(A) $22, (B) $24, (C) $31, (D) $35
Answer: C
Solve for y. y – 2 + 3y = 10
(A) 2, (B) 3, (C) 4, (D) 5
Answer: B
Solve 3 over 2 * w = 66.
(A) 33, (B) 44, (C) 88, (D) 99
Answer: B
Write 5.875 as a mixed number or fraction in simplest form.
(A) 5 and 8 over 9, (B) 5 and 7 over 8, (C) 7 over 8, (D) 5 and 87 over 105
Answer: B
Solve the equation 124 = m + 34.
(A) 158, (B) 90, (C) 88, (D) 4,216
Answer: B
Zelma buys p pounds of bananas for 40 cents per pound. She pays the clerk with a twenty-dollar bill. The clerk subtracts the total cost of the bananas from the twenty-dollar bill to determine the amount of change to give Zelma. Which expression represents the amount of change Zelma should receive?
(A) p - 20, (B) 20 - 40p, (C) 20 - 0.40p, (D) 0.40p - 20
Answer: C
Please answer the following question with just the correct option (A, B, C, or D) without any explanation or additional text.
Let S be a compact topological space, let T be a topological space, and let f be a function from S onto T. Of the following conditions on f, which is the weakest condition sufficient to ensure the compactness of T?
(A) 'f is a homeomorphism.', (B) 'f is continuous and one-to-one', (C) 'f is continuous.', (D) 'f is one-to-one'
Answer:","","","","","","","","","","","","","","","","","","","","","","feedback_imgs/Correct.png"
"call-function","11","1422230","0.0-4.0-0.2","r9q5pcn38a7hzw5","67a7c801931fc920c139e3b8","67b62c430b9240ccd8986e70","67b6381c8493c69b9e6fa10c","2","","","","","","defer","The domain of the function h(x) = sqrt{25-x^2}+sqrt{-(x-2)} is an interval of what width?","[""7"",""5"",""2"",""25""]","C","B","modiste","","A","132","algLinUCB_0.9","diff-topics","high_school_mathematics","The following are multiple choice questions about high_school_mathematics.
Colton and his dad bought a gallon of paint that cost $13. They also bought 2 brushes that cost $9 each. What was the total cost, not including tax, of the brushes and the paint they bought?
(A) $22, (B) $24, (C) $31, (D) $35
Answer: C
Solve for y. y – 2 + 3y = 10
(A) 2, (B) 3, (C) 4, (D) 5
Answer: B
Solve 3 over 2 * w = 66.
(A) 33, (B) 44, (C) 88, (D) 99
Answer: B
Write 5.875 as a mixed number or fraction in simplest form.
(A) 5 and 8 over 9, (B) 5 and 7 over 8, (C) 7 over 8, (D) 5 and 87 over 105
Answer: B
Solve the equation 124 = m + 34.
(A) 158, (B) 90, (C) 88, (D) 4,216
Answer: B
Zelma buys p pounds of bananas for 40 cents per pound. She pays the clerk with a twenty-dollar bill. The clerk subtracts the total cost of the bananas from the twenty-dollar bill to determine the amount of change to give Zelma. Which expression represents the amount of change Zelma should receive?
(A) p - 20, (B) 20 - 40p, (C) 20 - 0.40p, (D) 0.40p - 20
Answer: C
Please answer the following question with just the correct option (A, B, C, or D) without any explanation or additional text.
The domain of the function h(x) = sqrt{25-x^2}+sqrt{-(x-2)} is an interval of what width?
(A) '7', (B) '5', (C) '2', (D) '25'
Answer:","","","","","","","","","","","","","","","","","","","","","",""
"survey-html-form","12","1467557","0.0-4.0-1.2","r9q5pcn38a7hzw5","67a7c801931fc920c139e3b8","67b62c430b9240ccd8986e70","67b6381c8493c69b9e6fa10c","2","45326","","","{""mcAnswer"":""B""}","","","The domain of the function h(x) = sqrt{25-x^2}+sqrt{-(x-2)} is an interval of what width?","[""7"",""5"",""2"",""25""]","C","B","modiste","","A","132","algLinUCB_0.9","diff-topics","high_school_mathematics","The following are multiple choice questions about high_school_mathematics.
Colton and his dad bought a gallon of paint that cost $13. They also bought 2 brushes that cost $9 each. What was the total cost, not including tax, of the brushes and the paint they bought?
(A) $22, (B) $24, (C) $31, (D) $35
Answer: C
Solve for y. y – 2 + 3y = 10
(A) 2, (B) 3, (C) 4, (D) 5
Answer: B
Solve 3 over 2 * w = 66.
(A) 33, (B) 44, (C) 88, (D) 99
Answer: B
Write 5.875 as a mixed number or fraction in simplest form.
(A) 5 and 8 over 9, (B) 5 and 7 over 8, (C) 7 over 8, (D) 5 and 87 over 105
Answer: B
Solve the equation 124 = m + 34.
(A) 158, (B) 90, (C) 88, (D) 4,216
Answer: B
Zelma buys p pounds of bananas for 40 cents per pound. She pays the clerk with a twenty-dollar bill. The clerk subtracts the total cost of the bananas from the twenty-dollar bill to determine the amount of change to give Zelma. Which expression represents the amount of change Zelma should receive?
(A) p - 20, (B) 20 - 40p, (C) 20 - 0.40p, (D) 0.40p - 20
Answer: C
Please answer the following question with just the correct option (A, B, C, or D) without any explanation or additional text.
The domain of the function h(x) = sqrt{25-x^2}+sqrt{-(x-2)} is an interval of what width?
(A) '7', (B) '5', (C) '2', (D) '25'
Answer:","","","","","","","","","","","","","","","","","","","","","",""
"","","","","","","","","","","","","","","","","","","","","","","","","","","","B","","","","","","","","","","","","","","","","","","","","",""
"","","","","","","","","","","","","","","","","","","","","","","","","","","","","false","120","-1","C","false","false","defer","[]","false","0","false","0","{""elementary_mathematics"":[""40/50"",""31/50"",""5/6""],""high_school_mathematics"":[""27/50"",""22/50"",""3/6""],""college_mathematics"":[""22/50"",""26/50"",""3/6""]}","{""elementary_mathematics"":false,""college_mathematics"":false,""high_school_mathematics"":true}","You should attempt this problem by yourself","null","null","null","null","true",""
"image-keyboard-response","13","1469156","0.0-4.0-2.2","r9q5pcn38a7hzw5","67a7c801931fc920c139e3b8","67b62c430b9240ccd8986e70","67b6381c8493c69b9e6fa10c","2","null","","","null","","","The domain of the function h(x) = sqrt{25-x^2}+sqrt{-(x-2)} is an interval of what width?","[""7"",""5"",""2"",""25""]","C","B","modiste","","A","132","algLinUCB_0.9","diff-topics","high_school_mathematics","The following are multiple choice questions about high_school_mathematics.
Colton and his dad bought a gallon of paint that cost $13. They also bought 2 brushes that cost $9 each. What was the total cost, not including tax, of the brushes and the paint they bought?
(A) $22, (B) $24, (C) $31, (D) $35
Answer: C
Solve for y. y – 2 + 3y = 10
(A) 2, (B) 3, (C) 4, (D) 5
Answer: B
Solve 3 over 2 * w = 66.
(A) 33, (B) 44, (C) 88, (D) 99
Answer: B
Write 5.875 as a mixed number or fraction in simplest form.
(A) 5 and 8 over 9, (B) 5 and 7 over 8, (C) 7 over 8, (D) 5 and 87 over 105
Answer: B
Solve the equation 124 = m + 34.
(A) 158, (B) 90, (C) 88, (D) 4,216
Answer: B
Zelma buys p pounds of bananas for 40 cents per pound. She pays the clerk with a twenty-dollar bill. The clerk subtracts the total cost of the bananas from the twenty-dollar bill to determine the amount of change to give Zelma. Which expression represents the amount of change Zelma should receive?
(A) p - 20, (B) 20 - 40p, (C) 20 - 0.40p, (D) 0.40p - 20
Answer: C
Please answer the following question with just the correct option (A, B, C, or D) without any explanation or additional text.
The domain of the function h(x) = sqrt{25-x^2}+sqrt{-(x-2)} is an interval of what width?
(A) '7', (B) '5', (C) '2', (D) '25'
Answer:","","","","","","","","","","","","","","","","","","","","","","feedback_imgs/Incorrect.png"
"call-function","14","1469156","0.0-4.0-0.3","r9q5pcn38a7hzw5","67a7c801931fc920c139e3b8","67b62c430b9240ccd8986e70","67b6381c8493c69b9e6fa10c","2","","","","","","defer","A number's prime factors are 2, 5, 7, 13, and 31. Which of the following must be a factor of the number?","[""4"",""6"",""10"",""15""]","C","D","modiste","","C","126","algLinUCB_0.9","diff-topics","high_school_mathematics","The following are multiple choice questions about high_school_mathematics.
Colton and his dad bought a gallon of paint that cost $13. They also bought 2 brushes that cost $9 each. What was the total cost, not including tax, of the brushes and the paint they bought?
(A) $22, (B) $24, (C) $31, (D) $35
Answer: C
Solve for y. y – 2 + 3y = 10
(A) 2, (B) 3, (C) 4, (D) 5
Answer: B
Solve 3 over 2 * w = 66.
(A) 33, (B) 44, (C) 88, (D) 99
Answer: B
Write 5.875 as a mixed number or fraction in simplest form.
(A) 5 and 8 over 9, (B) 5 and 7 over 8, (C) 7 over 8, (D) 5 and 87 over 105
Answer: B
Solve the equation 124 = m + 34.
(A) 158, (B) 90, (C) 88, (D) 4,216
Answer: B
Zelma buys p pounds of bananas for 40 cents per pound. She pays the clerk with a twenty-dollar bill. The clerk subtracts the total cost of the bananas from the twenty-dollar bill to determine the amount of change to give Zelma. Which expression represents the amount of change Zelma should receive?
(A) p - 20, (B) 20 - 40p, (C) 20 - 0.40p, (D) 0.40p - 20
Answer: C
Please answer the following question with just the correct option (A, B, C, or D) without any explanation or additional text.
A number’s prime factors are 2, 5, 7, 13, and 31. Which of the following must be a factor of the number?
(A) '4', (B) '6', (C) '10', (D) '15'
Answer:","","","","","","","","","","true","2","","","","","","","","","","",""
"survey-html-form","15","1644252","0.0-4.0-1.3","r9q5pcn38a7hzw5","67a7c801931fc920c139e3b8","67b62c430b9240ccd8986e70","67b6381c8493c69b9e6fa10c","2","175093","","","{""mcAnswer"":""C""}","","","A number's prime factors are 2, 5, 7, 13, and 31. Which of the following must be a factor of the number?","[""4"",""6"",""10"",""15""]","C","D","modiste","","C","126","algLinUCB_0.9","diff-topics","high_school_mathematics","The following are multiple choice questions about high_school_mathematics.
Colton and his dad bought a gallon of paint that cost $13. They also bought 2 brushes that cost $9 each. What was the total cost, not including tax, of the brushes and the paint they bought?
(A) $22, (B) $24, (C) $31, (D) $35
Answer: C
Solve for y. y – 2 + 3y = 10
(A) 2, (B) 3, (C) 4, (D) 5
Answer: B
Solve 3 over 2 * w = 66.
(A) 33, (B) 44, (C) 88, (D) 99
Answer: B
Write 5.875 as a mixed number or fraction in simplest form.
(A) 5 and 8 over 9, (B) 5 and 7 over 8, (C) 7 over 8, (D) 5 and 87 over 105
Answer: B
Solve the equation 124 = m + 34.
(A) 158, (B) 90, (C) 88, (D) 4,216
Answer: B
Zelma buys p pounds of bananas for 40 cents per pound. She pays the clerk with a twenty-dollar bill. The clerk subtracts the total cost of the bananas from the twenty-dollar bill to determine the amount of change to give Zelma. Which expression represents the amount of change Zelma should receive?
(A) p - 20, (B) 20 - 40p, (C) 20 - 0.40p, (D) 0.40p - 20
Answer: C
Please answer the following question with just the correct option (A, B, C, or D) without any explanation or additional text.
A number’s prime factors are 2, 5, 7, 13, and 31. Which of the following must be a factor of the number?
(A) '4', (B) '6', (C) '10', (D) '15'
Answer:","","","","","","","","","","","","","","","","","","","","","",""
"","","","","","","","","","","","","","","","","","","","","","","","","","","","C","","","","","","","","","","","","","","","","","","","","",""
"","","","","","","","","","","","","","","","","","","","","","","","","","","","","false","123","-1","C","true","true","defer","[]","true","2","false","0","{""elementary_mathematics"":[""40/50"",""31/50"",""5/6""],""high_school_mathematics"":[""28/51"",""22/50"",""3/6""],""college_mathematics"":[""22/50"",""26/50"",""3/6""]}","{""elementary_mathematics"":false,""college_mathematics"":false,""high_school_mathematics"":false}","You were wrong by yourself on high_school_mathematics last time. You should outsource this problem to a human agent","null","true","null","true","null",""
"image-keyboard-response","16","1645897","0.0-4.0-2.3","r9q5pcn38a7hzw5","67a7c801931fc920c139e3b8","67b62c430b9240ccd8986e70","67b6381c8493c69b9e6fa10c","2","null","","","null","","","A number's prime factors are 2, 5, 7, 13, and 31. Which of the following must be a factor of the number?","[""4"",""6"",""10"",""15""]","C","D","modiste","","C","126","algLinUCB_0.9","diff-topics","high_school_mathematics","The following are multiple choice questions about high_school_mathematics.
Colton and his dad bought a gallon of paint that cost $13. They also bought 2 brushes that cost $9 each. What was the total cost, not including tax, of the brushes and the paint they bought?
(A) $22, (B) $24, (C) $31, (D) $35
Answer: C
Solve for y. y – 2 + 3y = 10
(A) 2, (B) 3, (C) 4, (D) 5
Answer: B
Solve 3 over 2 * w = 66.
(A) 33, (B) 44, (C) 88, (D) 99
Answer: B
Write 5.875 as a mixed number or fraction in simplest form.
(A) 5 and 8 over 9, (B) 5 and 7 over 8, (C) 7 over 8, (D) 5 and 87 over 105
Answer: B
Solve the equation 124 = m + 34.
(A) 158, (B) 90, (C) 88, (D) 4,216
Answer: B
Zelma buys p pounds of bananas for 40 cents per pound. She pays the clerk with a twenty-dollar bill. The clerk subtracts the total cost of the bananas from the twenty-dollar bill to determine the amount of change to give Zelma. Which expression represents the amount of change Zelma should receive?
(A) p - 20, (B) 20 - 40p, (C) 20 - 0.40p, (D) 0.40p - 20
Answer: C
Please answer the following question with just the correct option (A, B, C, or D) without any explanation or additional text.
A number’s prime factors are 2, 5, 7, 13, and 31. Which of the following must be a factor of the number?
(A) '4', (B) '6', (C) '10', (D) '15'
Answer:","","","","","","","","","","","","","","","","","","","","","","feedback_imgs/Correct.png"
"call-function","17","1645898","0.0-4.0-0.4","r9q5pcn38a7hzw5","67a7c801931fc920c139e3b8","67b62c430b9240ccd8986e70","67b6381c8493c69b9e6fa10c","2","","","","","","defer","What is the value of 5 + 2 • 15 + (12 • 4)?","[""78"",""83"",""131"",""153""]","B","B","modiste","","B","151","algLinUCB_0.9","diff-topics","elementary_mathematics","The following are multiple choice questions about high_school_mathematics.
Colton and his dad bought a gallon of paint that cost $13. They also bought 2 brushes that cost $9 each. What was the total cost, not including tax, of the brushes and the paint they bought?
(A) $22, (B) $24, (C) $31, (D) $35
Answer: C
Solve for y. y – 2 + 3y = 10
(A) 2, (B) 3, (C) 4, (D) 5
Answer: B
Solve 3 over 2 * w = 66.
(A) 33, (B) 44, (C) 88, (D) 99
Answer: B
Write 5.875 as a mixed number or fraction in simplest form.
(A) 5 and 8 over 9, (B) 5 and 7 over 8, (C) 7 over 8, (D) 5 and 87 over 105
Answer: B
Solve the equation 124 = m + 34.
(A) 158, (B) 90, (C) 88, (D) 4,216
Answer: B
Zelma buys p pounds of bananas for 40 cents per pound. She pays the clerk with a twenty-dollar bill. The clerk subtracts the total cost of the bananas from the twenty-dollar bill to determine the amount of change to give Zelma. Which expression represents the amount of change Zelma should receive?
(A) p - 20, (B) 20 - 40p, (C) 20 - 0.40p, (D) 0.40p - 20
Answer: C
Please answer the following question with just the correct option (A, B, C, or D) without any explanation or additional text.
What is the value of 5 + 2 • 15 + (12 • 4)?
(A) '78', (B) '83', (C) '131', (D) '153'
Answer:","","","","","","","","","","","","","","","","","","","","","",""
"survey-html-form","18","1672758","0.0-4.0-1.4","r9q5pcn38a7hzw5","67a7c801931fc920c139e3b8","67b62c430b9240ccd8986e70","67b6381c8493c69b9e6fa10c","2","26857","","","{""mcAnswer"":""B""}","","","What is the value of 5 + 2 • 15 + (12 • 4)?","[""78"",""83"",""131"",""153""]","B","B","modiste","","B","151","algLinUCB_0.9","diff-topics","elementary_mathematics","The following are multiple choice questions about high_school_mathematics.
Colton and his dad bought a gallon of paint that cost $13. They also bought 2 brushes that cost $9 each. What was the total cost, not including tax, of the brushes and the paint they bought?
(A) $22, (B) $24, (C) $31, (D) $35
Answer: C
Solve for y. y – 2 + 3y = 10
(A) 2, (B) 3, (C) 4, (D) 5
Answer: B
Solve 3 over 2 * w = 66.
(A) 33, (B) 44, (C) 88, (D) 99
Answer: B
Write 5.875 as a mixed number or fraction in simplest form.
(A) 5 and 8 over 9, (B) 5 and 7 over 8, (C) 7 over 8, (D) 5 and 87 over 105
Answer: B
Solve the equation 124 = m + 34.
(A) 158, (B) 90, (C) 88, (D) 4,216
Answer: B
Zelma buys p pounds of bananas for 40 cents per pound. She pays the clerk with a twenty-dollar bill. The clerk subtracts the total cost of the bananas from the twenty-dollar bill to determine the amount of change to give Zelma. Which expression represents the amount of change Zelma should receive?
(A) p - 20, (B) 20 - 40p, (C) 20 - 0.40p, (D) 0.40p - 20
Answer: C
Please answer the following question with just the correct option (A, B, C, or D) without any explanation or additional text.
What is the value of 5 + 2 • 15 + (12 • 4)?
(A) '78', (B) '83', (C) '131', (D) '153'
Answer:","","","","","","","","","","","","","","","","","","","","","",""
"","","","","","","","","","","","","","","","","","","","","","","","","","","","B","","","","","","","","","","","","","","","","","","","","",""
"","","","","","","","","","","","","","","","","","","","","","","","","","","","","false","133","-1","B","true","true","defer","[]","false","0","false","0","{""elementary_mathematics"":[""40/50"",""31/50"",""6/7""],""high_school_mathematics"":[""28/51"",""22/50"",""3/6""],""college_mathematics"":[""22/50"",""26/50"",""3/6""]}","{""elementary_mathematics"":false,""college_mathematics"":false,""high_school_mathematics"":false}","You should attempt this problem by yourself","null","null","null","null","true",""
"image-keyboard-response","19","1674279","0.0-4.0-2.4","r9q5pcn38a7hzw5","67a7c801931fc920c139e3b8","67b62c430b9240ccd8986e70","67b6381c8493c69b9e6fa10c","2","null","","","null","","","What is the value of 5 + 2 • 15 + (12 • 4)?","[""78"",""83"",""131"",""153""]","B","B","modiste","","B","151","algLinUCB_0.9","diff-topics","elementary_mathematics","The following are multiple choice questions about high_school_mathematics.
Colton and his dad bought a gallon of paint that cost $13. They also bought 2 brushes that cost $9 each. What was the total cost, not including tax, of the brushes and the paint they bought?
(A) $22, (B) $24, (C) $31, (D) $35
Answer: C
Solve for y. y – 2 + 3y = 10
(A) 2, (B) 3, (C) 4, (D) 5
Answer: B
Solve 3 over 2 * w = 66.
(A) 33, (B) 44, (C) 88, (D) 99
Answer: B
Write 5.875 as a mixed number or fraction in simplest form.
(A) 5 and 8 over 9, (B) 5 and 7 over 8, (C) 7 over 8, (D) 5 and 87 over 105
Answer: B
Solve the equation 124 = m + 34.
(A) 158, (B) 90, (C) 88, (D) 4,216
Answer: B
Zelma buys p pounds of bananas for 40 cents per pound. She pays the clerk with a twenty-dollar bill. The clerk subtracts the total cost of the bananas from the twenty-dollar bill to determine the amount of change to give Zelma. Which expression represents the amount of change Zelma should receive?
(A) p - 20, (B) 20 - 40p, (C) 20 - 0.40p, (D) 0.40p - 20
Answer: C
Please answer the following question with just the correct option (A, B, C, or D) without any explanation or additional text.
What is the value of 5 + 2 • 15 + (12 • 4)?
(A) '78', (B) '83', (C) '131', (D) '153'
Answer:","","","","","","","","","","","","","","","","","","","","","","feedback_imgs/Correct.png"
"call-function","20","1674279","0.0-4.0-0.5","r9q5pcn38a7hzw5","67a7c801931fc920c139e3b8","67b62c430b9240ccd8986e70","67b6381c8493c69b9e6fa10c","2","","","","","","defer","Gwen wrote the number pattern below on a piece of paper. 1, 5, 9, 13 What are the next two terms in Gwen's pattern?","[""15, 17"",""15, 19"",""17, 19"",""17, 21""]","B","D","modiste","","D","144","algLinUCB_0.9","diff-topics","elementary_mathematics","The following are multiple choice questions about high_school_mathematics.
Colton and his dad bought a gallon of paint that cost $13. They also bought 2 brushes that cost $9 each. What was the total cost, not including tax, of the brushes and the paint they bought?
(A) $22, (B) $24, (C) $31, (D) $35
Answer: C
Solve for y. y – 2 + 3y = 10
(A) 2, (B) 3, (C) 4, (D) 5
Answer: B
Solve 3 over 2 * w = 66.
(A) 33, (B) 44, (C) 88, (D) 99
Answer: B
Write 5.875 as a mixed number or fraction in simplest form.
(A) 5 and 8 over 9, (B) 5 and 7 over 8, (C) 7 over 8, (D) 5 and 87 over 105
Answer: B
Solve the equation 124 = m + 34.
(A) 158, (B) 90, (C) 88, (D) 4,216
Answer: B
Zelma buys p pounds of bananas for 40 cents per pound. She pays the clerk with a twenty-dollar bill. The clerk subtracts the total cost of the bananas from the twenty-dollar bill to determine the amount of change to give Zelma. Which expression represents the amount of change Zelma should receive?
(A) p - 20, (B) 20 - 40p, (C) 20 - 0.40p, (D) 0.40p - 20
Answer: C
Please answer the following question with just the correct option (A, B, C, or D) without any explanation or additional text.
Gwen wrote the number pattern below on a piece of paper. 1, 5, 9, 13 What are the next two terms in Gwen’s pattern?
(A) '15, 17', (B) '15, 19', (C) '17, 19', (D) '17, 21'
Answer:","","","","","","","","","","","","","","","","","","","","","",""
"survey-html-form","21","1691555","0.0-4.0-1.5","r9q5pcn38a7hzw5","67a7c801931fc920c139e3b8","67b62c430b9240ccd8986e70","67b6381c8493c69b9e6fa10c","2","17271","","","{""mcAnswer"":""D""}","","","Gwen wrote the number pattern below on a piece of paper. 1, 5, 9, 13 What are the next two terms in Gwen's pattern?","[""15, 17"",""15, 19"",""17, 19"",""17, 21""]","B","D","modiste","","D","144","algLinUCB_0.9","diff-topics","elementary_mathematics","The following are multiple choice questions about high_school_mathematics.
Colton and his dad bought a gallon of paint that cost $13. They also bought 2 brushes that cost $9 each. What was the total cost, not including tax, of the brushes and the paint they bought?
(A) $22, (B) $24, (C) $31, (D) $35
Answer: C
Solve for y. y – 2 + 3y = 10
(A) 2, (B) 3, (C) 4, (D) 5
Answer: B
Solve 3 over 2 * w = 66.
(A) 33, (B) 44, (C) 88, (D) 99
Answer: B
Write 5.875 as a mixed number or fraction in simplest form.
(A) 5 and 8 over 9, (B) 5 and 7 over 8, (C) 7 over 8, (D) 5 and 87 over 105
Answer: B
Solve the equation 124 = m + 34.
(A) 158, (B) 90, (C) 88, (D) 4,216
Answer: B
Zelma buys p pounds of bananas for 40 cents per pound. She pays the clerk with a twenty-dollar bill. The clerk subtracts the total cost of the bananas from the twenty-dollar bill to determine the amount of change to give Zelma. Which expression represents the amount of change Zelma should receive?
(A) p - 20, (B) 20 - 40p, (C) 20 - 0.40p, (D) 0.40p - 20
Answer: C
Please answer the following question with just the correct option (A, B, C, or D) without any explanation or additional text.
Gwen wrote the number pattern below on a piece of paper. 1, 5, 9, 13 What are the next two terms in Gwen’s pattern?
(A) '15, 17', (B) '15, 19', (C) '17, 19', (D) '17, 21'
Answer:","","","","","","","","","","","","","","","","","","","","","",""
"","","","","","","","","","","","","","","","","","","","","","","","","","","","D","","","","","","","","","","","","","","","","","","","","",""
"","","","","","","","","","","","","","","","","","","","","","","","","","","","","false","143","-1","B","true","false","defer","[]","false","0","false","0","{""elementary_mathematics"":[""40/50"",""31/50"",""7/8""],""high_school_mathematics"":[""28/51"",""22/50"",""3/6""],""college_mathematics"":[""22/50"",""26/50"",""3/6""]}","{""elementary_mathematics"":false,""college_mathematics"":false,""high_school_mathematics"":false}","You should attempt this problem by yourself","null","null","null","null","true",""
"image-keyboard-response","22","1693222","0.0-4.0-2.5","r9q5pcn38a7hzw5","67a7c801931fc920c139e3b8","67b62c430b9240ccd8986e70","67b6381c8493c69b9e6fa10c","2","null","","","null","","","Gwen wrote the number pattern below on a piece of paper. 1, 5, 9, 13 What are the next two terms in Gwen's pattern?","[""15, 17"",""15, 19"",""17, 19"",""17, 21""]","B","D","modiste","","D","144","algLinUCB_0.9","diff-topics","elementary_mathematics","The following are multiple choice questions about high_school_mathematics.
Colton and his dad bought a gallon of paint that cost $13. They also bought 2 brushes that cost $9 each. What was the total cost, not including tax, of the brushes and the paint they bought?
(A) $22, (B) $24, (C) $31, (D) $35
Answer: C
Solve for y. y – 2 + 3y = 10
(A) 2, (B) 3, (C) 4, (D) 5
Answer: B
Solve 3 over 2 * w = 66.
(A) 33, (B) 44, (C) 88, (D) 99
Answer: B
Write 5.875 as a mixed number or fraction in simplest form.
(A) 5 and 8 over 9, (B) 5 and 7 over 8, (C) 7 over 8, (D) 5 and 87 over 105
Answer: B
Solve the equation 124 = m + 34.
(A) 158, (B) 90, (C) 88, (D) 4,216
Answer: B
Zelma buys p pounds of bananas for 40 cents per pound. She pays the clerk with a twenty-dollar bill. The clerk subtracts the total cost of the bananas from the twenty-dollar bill to determine the amount of change to give Zelma. Which expression represents the amount of change Zelma should receive?
(A) p - 20, (B) 20 - 40p, (C) 20 - 0.40p, (D) 0.40p - 20
Answer: C
Please answer the following question with just the correct option (A, B, C, or D) without any explanation or additional text.
Gwen wrote the number pattern below on a piece of paper. 1, 5, 9, 13 What are the next two terms in Gwen’s pattern?
(A) '15, 17', (B) '15, 19', (C) '17, 19', (D) '17, 21'
Answer:","","","","","","","","","","","","","","","","","","","","","","feedback_imgs/Correct.png"
"call-function","23","1693223","0.0-4.0-0.6","r9q5pcn38a7hzw5","67a7c801931fc920c139e3b8","67b62c430b9240ccd8986e70","67b6381c8493c69b9e6fa10c","2","","","","","","defer","A box contains 4 white balls and 4 black balls. I draw them out of the box, one at a time. What is the probability that all of my draws alternate colors?","[""1/8"",""1/7"",""1/40"",""1/35""]","C","A","modiste","","D","130","algLinUCB_0.9","diff-topics","high_school_mathematics","The following are multiple choice questions about high_school_mathematics.
Colton and his dad bought a gallon of paint that cost $13. They also bought 2 brushes that cost $9 each. What was the total cost, not including tax, of the brushes and the paint they bought?
(A) $22, (B) $24, (C) $31, (D) $35
Answer: C
Solve for y. y – 2 + 3y = 10
(A) 2, (B) 3, (C) 4, (D) 5
Answer: B
Solve 3 over 2 * w = 66.
(A) 33, (B) 44, (C) 88, (D) 99
Answer: B
Write 5.875 as a mixed number or fraction in simplest form.
(A) 5 and 8 over 9, (B) 5 and 7 over 8, (C) 7 over 8, (D) 5 and 87 over 105
Answer: B
Solve the equation 124 = m + 34.
(A) 158, (B) 90, (C) 88, (D) 4,216
Answer: B
Zelma buys p pounds of bananas for 40 cents per pound. She pays the clerk with a twenty-dollar bill. The clerk subtracts the total cost of the bananas from the twenty-dollar bill to determine the amount of change to give Zelma. Which expression represents the amount of change Zelma should receive?
(A) p - 20, (B) 20 - 40p, (C) 20 - 0.40p, (D) 0.40p - 20
Answer: C
Please answer the following question with just the correct option (A, B, C, or D) without any explanation or additional text.
A box contains 4 white balls and 4 black balls. I draw them out of the box, one at a time. What is the probability that all of my draws alternate colors?
(A) '1/8', (B) '1/7', (C) '1/40', (D) '1/35'
Answer:","","","","","","","","","","","","","","","","","","","","","",""
"survey-html-form","24","1714169","0.0-4.0-1.6","r9q5pcn38a7hzw5","67a7c801931fc920c139e3b8","67b62c430b9240ccd8986e70","67b6381c8493c69b9e6fa10c","2","20944","","","{""mcAnswer"":""A""}","","","A box contains 4 white balls and 4 black balls. I draw them out of the box, one at a time. What is the probability that all of my draws alternate colors?","[""1/8"",""1/7"",""1/40"",""1/35""]","C","A","modiste","","D","130","algLinUCB_0.9","diff-topics","high_school_mathematics","The following are multiple choice questions about high_school_mathematics.
Colton and his dad bought a gallon of paint that cost $13. They also bought 2 brushes that cost $9 each. What was the total cost, not including tax, of the brushes and the paint they bought?
(A) $22, (B) $24, (C) $31, (D) $35
Answer: C
Solve for y. y – 2 + 3y = 10
(A) 2, (B) 3, (C) 4, (D) 5
Answer: B
Solve 3 over 2 * w = 66.
(A) 33, (B) 44, (C) 88, (D) 99
Answer: B
Write 5.875 as a mixed number or fraction in simplest form.
(A) 5 and 8 over 9, (B) 5 and 7 over 8, (C) 7 over 8, (D) 5 and 87 over 105
Answer: B
Solve the equation 124 = m + 34.
(A) 158, (B) 90, (C) 88, (D) 4,216
Answer: B
Zelma buys p pounds of bananas for 40 cents per pound. She pays the clerk with a twenty-dollar bill. The clerk subtracts the total cost of the bananas from the twenty-dollar bill to determine the amount of change to give Zelma. Which expression represents the amount of change Zelma should receive?
(A) p - 20, (B) 20 - 40p, (C) 20 - 0.40p, (D) 0.40p - 20
Answer: C
Please answer the following question with just the correct option (A, B, C, or D) without any explanation or additional text.
A box contains 4 white balls and 4 black balls. I draw them out of the box, one at a time. What is the probability that all of my draws alternate colors?
(A) '1/8', (B) '1/7', (C) '1/40', (D) '1/35'
Answer:","","","","","","","","","","","","","","","","","","","","","",""
"","","","","","","","","","","","","","","","","","","","","","","","","","","","A","","","","","","","","","","","","","","","","","","","","",""
"","","","","","","","","","","","","","","","","","","","","","","","","","","","","false","143","-1","C","false","false","defer","[]","false","0","false","0","{""elementary_mathematics"":[""40/50"",""31/50"",""7/8""],""high_school_mathematics"":[""28/51"",""22/50"",""3/7""],""college_mathematics"":[""22/50"",""26/50"",""3/6""]}","{""elementary_mathematics"":false,""college_mathematics"":false,""high_school_mathematics"":true}","You should outsource this problem to a human agent","null","null","null","false","null",""
"image-keyboard-response","25","1715691","0.0-4.0-2.6","r9q5pcn38a7hzw5","67a7c801931fc920c139e3b8","67b62c430b9240ccd8986e70","67b6381c8493c69b9e6fa10c","2","null","","","null","","","A box contains 4 white balls and 4 black balls. I draw them out of the box, one at a time. What is the probability that all of my draws alternate colors?","[""1/8"",""1/7"",""1/40"",""1/35""]","C","A","modiste","","D","130","algLinUCB_0.9","diff-topics","high_school_mathematics","The following are multiple choice questions about high_school_mathematics.
Colton and his dad bought a gallon of paint that cost $13. They also bought 2 brushes that cost $9 each. What was the total cost, not including tax, of the brushes and the paint they bought?
(A) $22, (B) $24, (C) $31, (D) $35
Answer: C
Solve for y. y – 2 + 3y = 10
(A) 2, (B) 3, (C) 4, (D) 5
Answer: B
Solve 3 over 2 * w = 66.
(A) 33, (B) 44, (C) 88, (D) 99
Answer: B
Write 5.875 as a mixed number or fraction in simplest form.
(A) 5 and 8 over 9, (B) 5 and 7 over 8, (C) 7 over 8, (D) 5 and 87 over 105
Answer: B
Solve the equation 124 = m + 34.
(A) 158, (B) 90, (C) 88, (D) 4,216
Answer: B
Zelma buys p pounds of bananas for 40 cents per pound. She pays the clerk with a twenty-dollar bill. The clerk subtracts the total cost of the bananas from the twenty-dollar bill to determine the amount of change to give Zelma. Which expression represents the amount of change Zelma should receive?
(A) p - 20, (B) 20 - 40p, (C) 20 - 0.40p, (D) 0.40p - 20
Answer: C
Please answer the following question with just the correct option (A, B, C, or D) without any explanation or additional text.
A box contains 4 white balls and 4 black balls. I draw them out of the box, one at a time. What is the probability that all of my draws alternate colors?
(A) '1/8', (B) '1/7', (C) '1/40', (D) '1/35'
Answer:","","","","","","","","","","","","","","","","","","","","","","feedback_imgs/Incorrect.png"
"call-function","26","1715692","0.0-4.0-0.7","r9q5pcn38a7hzw5","67a7c801931fc920c139e3b8","67b62c430b9240ccd8986e70","67b6381c8493c69b9e6fa10c","2","","","","","","defer","What is the smallest prime whose digits sum to 19?","[""5"",""11"",""17"",""199""]","D","D","modiste","","D","131","algLinUCB_0.9","diff-topics","high_school_mathematics","The following are multiple choice questions about high_school_mathematics.
Colton and his dad bought a gallon of paint that cost $13. They also bought 2 brushes that cost $9 each. What was the total cost, not including tax, of the brushes and the paint they bought?
(A) $22, (B) $24, (C) $31, (D) $35
Answer: C
Solve for y. y – 2 + 3y = 10
(A) 2, (B) 3, (C) 4, (D) 5
Answer: B
Solve 3 over 2 * w = 66.
(A) 33, (B) 44, (C) 88, (D) 99
Answer: B
Write 5.875 as a mixed number or fraction in simplest form.
(A) 5 and 8 over 9, (B) 5 and 7 over 8, (C) 7 over 8, (D) 5 and 87 over 105
Answer: B
Solve the equation 124 = m + 34.
(A) 158, (B) 90, (C) 88, (D) 4,216
Answer: B
Zelma buys p pounds of bananas for 40 cents per pound. She pays the clerk with a twenty-dollar bill. The clerk subtracts the total cost of the bananas from the twenty-dollar bill to determine the amount of change to give Zelma. Which expression represents the amount of change Zelma should receive?
(A) p - 20, (B) 20 - 40p, (C) 20 - 0.40p, (D) 0.40p - 20
Answer: C
Please answer the following question with just the correct option (A, B, C, or D) without any explanation or additional text.
What is the smallest prime whose digits sum to 19?
(A) '5', (B) '11', (C) '17', (D) '199'
Answer:","","","","","","","","","","","","true","2","","","","","","","","",""
"survey-html-form","27","1754665","0.0-4.0-1.7","r9q5pcn38a7hzw5","67a7c801931fc920c139e3b8","67b62c430b9240ccd8986e70","67b6381c8493c69b9e6fa10c","2","38970","","","{""mcAnswer"":""D""}","","","What is the smallest prime whose digits sum to 19?","[""5"",""11"",""17"",""199""]","D","D","modiste","","D","131","algLinUCB_0.9","diff-topics","high_school_mathematics","The following are multiple choice questions about high_school_mathematics.
Colton and his dad bought a gallon of paint that cost $13. They also bought 2 brushes that cost $9 each. What was the total cost, not including tax, of the brushes and the paint they bought?
(A) $22, (B) $24, (C) $31, (D) $35
Answer: C
Solve for y. y – 2 + 3y = 10
(A) 2, (B) 3, (C) 4, (D) 5
Answer: B
Solve 3 over 2 * w = 66.
(A) 33, (B) 44, (C) 88, (D) 99
Answer: B
Write 5.875 as a mixed number or fraction in simplest form.
(A) 5 and 8 over 9, (B) 5 and 7 over 8, (C) 7 over 8, (D) 5 and 87 over 105
Answer: B
Solve the equation 124 = m + 34.
(A) 158, (B) 90, (C) 88, (D) 4,216
Answer: B
Zelma buys p pounds of bananas for 40 cents per pound. She pays the clerk with a twenty-dollar bill. The clerk subtracts the total cost of the bananas from the twenty-dollar bill to determine the amount of change to give Zelma. Which expression represents the amount of change Zelma should receive?
(A) p - 20, (B) 20 - 40p, (C) 20 - 0.40p, (D) 0.40p - 20
Answer: C
Please answer the following question with just the correct option (A, B, C, or D) without any explanation or additional text.
What is the smallest prime whose digits sum to 19?
(A) '5', (B) '11', (C) '17', (D) '199'
Answer:","","","","","","","","","","","","","","","","","","","","","",""
"","","","","","","","","","","","","","","","","","","","","","","","","","","","D","","","","","","","","","","","","","","","","","","","","",""
"","","","","","","","","","","","","","","","","","","","","","","","","","","","","false","150","-1","D","true","true","defer","[]","false","0","true","2","{""elementary_mathematics"":[""40/50"",""31/50"",""7/8""],""high_school_mathematics"":[""28/51"",""23/51"",""3/7""],""college_mathematics"":[""22/50"",""26/50"",""3/6""]}","{""elementary_mathematics"":false,""college_mathematics"":false,""high_school_mathematics"":false}","You were wrong by yourself on high_school_mathematics last time. You should outsource this problem to a human agent","false","null","null","false","null",""
"image-keyboard-response","28","1756345","0.0-4.0-2.7","r9q5pcn38a7hzw5","67a7c801931fc920c139e3b8","67b62c430b9240ccd8986e70","67b6381c8493c69b9e6fa10c","2","null","","","null","","","What is the smallest prime whose digits sum to 19?","[""5"",""11"",""17"",""199""]","D","D","modiste","","D","131","algLinUCB_0.9","diff-topics","high_school_mathematics","The following are multiple choice questions about high_school_mathematics.
Colton and his dad bought a gallon of paint that cost $13. They also bought 2 brushes that cost $9 each. What was the total cost, not including tax, of the brushes and the paint they bought?
(A) $22, (B) $24, (C) $31, (D) $35
Answer: C
Solve for y. y – 2 + 3y = 10
(A) 2, (B) 3, (C) 4, (D) 5
Answer: B
Solve 3 over 2 * w = 66.
(A) 33, (B) 44, (C) 88, (D) 99
Answer: B
Write 5.875 as a mixed number or fraction in simplest form.
(A) 5 and 8 over 9, (B) 5 and 7 over 8, (C) 7 over 8, (D) 5 and 87 over 105
Answer: B
Solve the equation 124 = m + 34.
(A) 158, (B) 90, (C) 88, (D) 4,216
Answer: B
Zelma buys p pounds of bananas for 40 cents per pound. She pays the clerk with a twenty-dollar bill. The clerk subtracts the total cost of the bananas from the twenty-dollar bill to determine the amount of change to give Zelma. Which expression represents the amount of change Zelma should receive?
(A) p - 20, (B) 20 - 40p, (C) 20 - 0.40p, (D) 0.40p - 20
Answer: C
Please answer the following question with just the correct option (A, B, C, or D) without any explanation or additional text.
What is the smallest prime whose digits sum to 19?
(A) '5', (B) '11', (C) '17', (D) '199'
Answer:","","","","","","","","","","","","","","","","","","","","","","feedback_imgs/Correct.png"
"call-function","29","1756346","0.0-4.0-0.8","r9q5pcn38a7hzw5","67a7c801931fc920c139e3b8","67b62c430b9240ccd8986e70","67b6381c8493c69b9e6fa10c","2","","","","","","defer","The population of a certain city is 836,527. What is the population of this city rounded to the nearest ten thousand?","[""800,000"",""830,000"",""836,000"",""840,000""]","B","D","modiste","","D","148","algLinUCB_0.9","diff-topics","elementary_mathematics","The following are multiple choice questions about high_school_mathematics.
Colton and his dad bought a gallon of paint that cost $13. They also bought 2 brushes that cost $9 each. What was the total cost, not including tax, of the brushes and the paint they bought?
(A) $22, (B) $24, (C) $31, (D) $35
Answer: C
Solve for y. y – 2 + 3y = 10
(A) 2, (B) 3, (C) 4, (D) 5
Answer: B
Solve 3 over 2 * w = 66.
(A) 33, (B) 44, (C) 88, (D) 99
Answer: B
Write 5.875 as a mixed number or fraction in simplest form.
(A) 5 and 8 over 9, (B) 5 and 7 over 8, (C) 7 over 8, (D) 5 and 87 over 105
Answer: B
Solve the equation 124 = m + 34.
(A) 158, (B) 90, (C) 88, (D) 4,216
Answer: B
Zelma buys p pounds of bananas for 40 cents per pound. She pays the clerk with a twenty-dollar bill. The clerk subtracts the total cost of the bananas from the twenty-dollar bill to determine the amount of change to give Zelma. Which expression represents the amount of change Zelma should receive?
(A) p - 20, (B) 20 - 40p, (C) 20 - 0.40p, (D) 0.40p - 20
Answer: C
Please answer the following question with just the correct option (A, B, C, or D) without any explanation or additional text.
The population of a certain city is 836,527. What is the population of this city rounded to the nearest ten thousand?
(A) '800,000', (B) '830,000', (C) '836,000', (D) '840,000'
Answer:","","","","","","","","","","","","","","","","","","","","","",""
"survey-html-form","30","1785998","0.0-4.0-1.8","r9q5pcn38a7hzw5","67a7c801931fc920c139e3b8","67b62c430b9240ccd8986e70","67b6381c8493c69b9e6fa10c","2","29649","","","{""mcAnswer"":""D""}","","","The population of a certain city is 836,527. What is the population of this city rounded to the nearest ten thousand?","[""800,000"",""830,000"",""836,000"",""840,000""]","B","D","modiste","","D","148","algLinUCB_0.9","diff-topics","elementary_mathematics","The following are multiple choice questions about high_school_mathematics.
Colton and his dad bought a gallon of paint that cost $13. They also bought 2 brushes that cost $9 each. What was the total cost, not including tax, of the brushes and the paint they bought?
(A) $22, (B) $24, (C) $31, (D) $35
Answer: C
Solve for y. y – 2 + 3y = 10
(A) 2, (B) 3, (C) 4, (D) 5
Answer: B
Solve 3 over 2 * w = 66.
(A) 33, (B) 44, (C) 88, (D) 99
Answer: B
Write 5.875 as a mixed number or fraction in simplest form.
(A) 5 and 8 over 9, (B) 5 and 7 over 8, (C) 7 over 8, (D) 5 and 87 over 105
Answer: B
Solve the equation 124 = m + 34.
(A) 158, (B) 90, (C) 88, (D) 4,216
Answer: B
Zelma buys p pounds of bananas for 40 cents per pound. She pays the clerk with a twenty-dollar bill. The clerk subtracts the total cost of the bananas from the twenty-dollar bill to determine the amount of change to give Zelma. Which expression represents the amount of change Zelma should receive?
(A) p - 20, (B) 20 - 40p, (C) 20 - 0.40p, (D) 0.40p - 20
Answer: C
Please answer the following question with just the correct option (A, B, C, or D) without any explanation or additional text.
The population of a certain city is 836,527. What is the population of this city rounded to the nearest ten thousand?
(A) '800,000', (B) '830,000', (C) '836,000', (D) '840,000'
Answer:","","","","","","","","","","","","","","","","","","","","","",""
"","","","","","","","","","","","","","","","","","","","","","","","","","","","D","","","","","","","","","","","","","","","","","","","","",""
"","","","","","","","","","","","","","","","","","","","","","","","","","","","","false","160","-1","B","true","false","defer","[]","false","0","false","0","{""elementary_mathematics"":[""40/50"",""31/50"",""8/9""],""high_school_mathematics"":[""28/51"",""23/51"",""3/7""],""college_mathematics"":[""22/50"",""26/50"",""3/6""]}","{""elementary_mathematics"":false,""college_mathematics"":false,""high_school_mathematics"":false}","You should attempt this problem by yourself","null","null","null","null","true",""
"image-keyboard-response","31","1787502","0.0-4.0-2.8","r9q5pcn38a7hzw5","67a7c801931fc920c139e3b8","67b62c430b9240ccd8986e70","67b6381c8493c69b9e6fa10c","2","null","","","null","","","The population of a certain city is 836,527. What is the population of this city rounded to the nearest ten thousand?","[""800,000"",""830,000"",""836,000"",""840,000""]","B","D","modiste","","D","148","algLinUCB_0.9","diff-topics","elementary_mathematics","The following are multiple choice questions about high_school_mathematics.
Colton and his dad bought a gallon of paint that cost $13. They also bought 2 brushes that cost $9 each. What was the total cost, not including tax, of the brushes and the paint they bought?
(A) $22, (B) $24, (C) $31, (D) $35
Answer: C
Solve for y. y – 2 + 3y = 10
(A) 2, (B) 3, (C) 4, (D) 5
Answer: B
Solve 3 over 2 * w = 66.
(A) 33, (B) 44, (C) 88, (D) 99
Answer: B
Write 5.875 as a mixed number or fraction in simplest form.
(A) 5 and 8 over 9, (B) 5 and 7 over 8, (C) 7 over 8, (D) 5 and 87 over 105
Answer: B
Solve the equation 124 = m + 34.
(A) 158, (B) 90, (C) 88, (D) 4,216
Answer: B
Zelma buys p pounds of bananas for 40 cents per pound. She pays the clerk with a twenty-dollar bill. The clerk subtracts the total cost of the bananas from the twenty-dollar bill to determine the amount of change to give Zelma. Which expression represents the amount of change Zelma should receive?
(A) p - 20, (B) 20 - 40p, (C) 20 - 0.40p, (D) 0.40p - 20
Answer: C
Please answer the following question with just the correct option (A, B, C, or D) without any explanation or additional text.
The population of a certain city is 836,527. What is the population of this city rounded to the nearest ten thousand?
(A) '800,000', (B) '830,000', (C) '836,000', (D) '840,000'
Answer:","","","","","","","","","","","","","","","","","","","","","","feedback_imgs/Correct.png"
"call-function","32","1787502","0.0-4.0-0.9","r9q5pcn38a7hzw5","67a7c801931fc920c139e3b8","67b62c430b9240ccd8986e70","67b6381c8493c69b9e6fa10c","2","","","","","","defer","How many unique numbers can be made from creating a fraction with 2,3,4, or 6 in the numerator and 2,3,4, or 6 in the denominator?","[""1"",""9"",""2"",""10""]","B","B","modiste","","B","137","algLinUCB_0.9","diff-topics","high_school_mathematics","The following are multiple choice questions about high_school_mathematics.
Colton and his dad bought a gallon of paint that cost $13. They also bought 2 brushes that cost $9 each. What was the total cost, not including tax, of the brushes and the paint they bought?
(A) $22, (B) $24, (C) $31, (D) $35
Answer: C
Solve for y. y – 2 + 3y = 10
(A) 2, (B) 3, (C) 4, (D) 5
Answer: B
Solve 3 over 2 * w = 66.
(A) 33, (B) 44, (C) 88, (D) 99
Answer: B
Write 5.875 as a mixed number or fraction in simplest form.
(A) 5 and 8 over 9, (B) 5 and 7 over 8, (C) 7 over 8, (D) 5 and 87 over 105
Answer: B
Solve the equation 124 = m + 34.
(A) 158, (B) 90, (C) 88, (D) 4,216
Answer: B
Zelma buys p pounds of bananas for 40 cents per pound. She pays the clerk with a twenty-dollar bill. The clerk subtracts the total cost of the bananas from the twenty-dollar bill to determine the amount of change to give Zelma. Which expression represents the amount of change Zelma should receive?
(A) p - 20, (B) 20 - 40p, (C) 20 - 0.40p, (D) 0.40p - 20
Answer: C
Please answer the following question with just the correct option (A, B, C, or D) without any explanation or additional text.
How many unique numbers can be made from creating a fraction with 2,3,4, or 6 in the numerator and 2,3,4, or 6 in the denominator?
(A) '1', (B) '9', (C) '2', (D) '10'
Answer:","","","","","","","","","","","","","","","","","","","","","",""
"survey-html-form","33","1870344","0.0-4.0-1.9","r9q5pcn38a7hzw5","67a7c801931fc920c139e3b8","67b62c430b9240ccd8986e70","67b6381c8493c69b9e6fa10c","2","82841","","","{""mcAnswer"":""B""}","","","How many unique numbers can be made from creating a fraction with 2,3,4, or 6 in the numerator and 2,3,4, or 6 in the denominator?","[""1"",""9"",""2"",""10""]","B","B","modiste","","B","137","algLinUCB_0.9","diff-topics","high_school_mathematics","The following are multiple choice questions about high_school_mathematics.
Colton and his dad bought a gallon of paint that cost $13. They also bought 2 brushes that cost $9 each. What was the total cost, not including tax, of the brushes and the paint they bought?
(A) $22, (B) $24, (C) $31, (D) $35
Answer: C
Solve for y. y – 2 + 3y = 10
(A) 2, (B) 3, (C) 4, (D) 5
Answer: B
Solve 3 over 2 * w = 66.
(A) 33, (B) 44, (C) 88, (D) 99
Answer: B
Write 5.875 as a mixed number or fraction in simplest form.
(A) 5 and 8 over 9, (B) 5 and 7 over 8, (C) 7 over 8, (D) 5 and 87 over 105
Answer: B
Solve the equation 124 = m + 34.
(A) 158, (B) 90, (C) 88, (D) 4,216
Answer: B
Zelma buys p pounds of bananas for 40 cents per pound. She pays the clerk with a twenty-dollar bill. The clerk subtracts the total cost of the bananas from the twenty-dollar bill to determine the amount of change to give Zelma. Which expression represents the amount of change Zelma should receive?
(A) p - 20, (B) 20 - 40p, (C) 20 - 0.40p, (D) 0.40p - 20
Answer: C
Please answer the following question with just the correct option (A, B, C, or D) without any explanation or additional text.
How many unique numbers can be made from creating a fraction with 2,3,4, or 6 in the numerator and 2,3,4, or 6 in the denominator?
(A) '1', (B) '9', (C) '2', (D) '10'
Answer:","","","","","","","","","","","","","","","","","","","","","",""
"","","","","","","","","","","","","","","","","","","","","","","","","","","","B","","","","","","","","","","","","","","","","","","","","",""
"","","","","","","","","","","","","","","","","","","","","","","","","","","","","false","170","-1","B","true","true","defer","[]","false","0","false","0","{""elementary_mathematics"":[""40/50"",""31/50"",""8/9""],""high_school_mathematics"":[""28/51"",""23/51"",""4/8""],""college_mathematics"":[""22/50"",""26/50"",""3/6""]}","{""elementary_mathematics"":false,""college_mathematics"":false,""high_school_mathematics"":false}","You should outsource this problem to a human agent","null","null","null","false","null",""
"image-keyboard-response","34","1871859","0.0-4.0-2.9","r9q5pcn38a7hzw5","67a7c801931fc920c139e3b8","67b62c430b9240ccd8986e70","67b6381c8493c69b9e6fa10c","2","null","","","null","","","How many unique numbers can be made from creating a fraction with 2,3,4, or 6 in the numerator and 2,3,4, or 6 in the denominator?","[""1"",""9"",""2"",""10""]","B","B","modiste","","B","137","algLinUCB_0.9","diff-topics","high_school_mathematics","The following are multiple choice questions about high_school_mathematics.
Colton and his dad bought a gallon of paint that cost $13. They also bought 2 brushes that cost $9 each. What was the total cost, not including tax, of the brushes and the paint they bought?
(A) $22, (B) $24, (C) $31, (D) $35
Answer: C
Solve for y. y – 2 + 3y = 10
(A) 2, (B) 3, (C) 4, (D) 5
Answer: B
Solve 3 over 2 * w = 66.
(A) 33, (B) 44, (C) 88, (D) 99
Answer: B
Write 5.875 as a mixed number or fraction in simplest form.
(A) 5 and 8 over 9, (B) 5 and 7 over 8, (C) 7 over 8, (D) 5 and 87 over 105
Answer: B
Solve the equation 124 = m + 34.
(A) 158, (B) 90, (C) 88, (D) 4,216
Answer: B
Zelma buys p pounds of bananas for 40 cents per pound. She pays the clerk with a twenty-dollar bill. The clerk subtracts the total cost of the bananas from the twenty-dollar bill to determine the amount of change to give Zelma. Which expression represents the amount of change Zelma should receive?
(A) p - 20, (B) 20 - 40p, (C) 20 - 0.40p, (D) 0.40p - 20
Answer: C
Please answer the following question with just the correct option (A, B, C, or D) without any explanation or additional text.
How many unique numbers can be made from creating a fraction with 2,3,4, or 6 in the numerator and 2,3,4, or 6 in the denominator?
(A) '1', (B) '9', (C) '2', (D) '10'
Answer:","","","","","","","","","","","","","","","","","","","","","","feedback_imgs/Correct.png"
"call-function","35","1871861","0.0-4.0-0.10","r9q5pcn38a7hzw5","67a7c801931fc920c139e3b8","67b62c430b9240ccd8986e70","67b6381c8493c69b9e6fa10c","2","","","","","","defer","Theresa had a bag of 72 marbles. She put the marbles into 9 equal groups. Which number sentence shows how to find the number of marbles Theresa put into each group?","[""72 ÷ 9 = 8"",""72 – 9 = 63"",""9 + 72 = 81"",""9 ÷ 72 = 0.125""]","A","A","modiste","","A","157","algLinUCB_0.9","diff-topics","elementary_mathematics","The following are multiple choice questions about high_school_mathematics.
Colton and his dad bought a gallon of paint that cost $13. They also bought 2 brushes that cost $9 each. What was the total cost, not including tax, of the brushes and the paint they bought?
(A) $22, (B) $24, (C) $31, (D) $35
Answer: C
Solve for y. y – 2 + 3y = 10
(A) 2, (B) 3, (C) 4, (D) 5
Answer: B
Solve 3 over 2 * w = 66.
(A) 33, (B) 44, (C) 88, (D) 99
Answer: B
Write 5.875 as a mixed number or fraction in simplest form.
(A) 5 and 8 over 9, (B) 5 and 7 over 8, (C) 7 over 8, (D) 5 and 87 over 105
Answer: B
Solve the equation 124 = m + 34.
(A) 158, (B) 90, (C) 88, (D) 4,216
Answer: B
Zelma buys p pounds of bananas for 40 cents per pound. She pays the clerk with a twenty-dollar bill. The clerk subtracts the total cost of the bananas from the twenty-dollar bill to determine the amount of change to give Zelma. Which expression represents the amount of change Zelma should receive?
(A) p - 20, (B) 20 - 40p, (C) 20 - 0.40p, (D) 0.40p - 20
Answer: C
Please answer the following question with just the correct option (A, B, C, or D) without any explanation or additional text.
Theresa had a bag of 72 marbles. She put the marbles into 9 equal groups. Which number sentence shows how to find the number of marbles Theresa put into each group?
(A) '72 ÷ 9 = 8', (B) '72 – 9 = 63', (C) '9 + 72 = 81', (D) '9 ÷ 72 = 0.125'
Answer:","","","","","","","","","","","","","","","","","","","","","",""
"survey-html-form","36","1890049","0.0-4.0-1.10","r9q5pcn38a7hzw5","67a7c801931fc920c139e3b8","67b62c430b9240ccd8986e70","67b6381c8493c69b9e6fa10c","2","18184","","","{""mcAnswer"":""A""}","","","Theresa had a bag of 72 marbles. She put the marbles into 9 equal groups. Which number sentence shows how to find the number of marbles Theresa put into each group?","[""72 ÷ 9 = 8"",""72 – 9 = 63"",""9 + 72 = 81"",""9 ÷ 72 = 0.125""]","A","A","modiste","","A","157","algLinUCB_0.9","diff-topics","elementary_mathematics","The following are multiple choice questions about high_school_mathematics.
Colton and his dad bought a gallon of paint that cost $13. They also bought 2 brushes that cost $9 each. What was the total cost, not including tax, of the brushes and the paint they bought?
(A) $22, (B) $24, (C) $31, (D) $35
Answer: C
Solve for y. y – 2 + 3y = 10
(A) 2, (B) 3, (C) 4, (D) 5
Answer: B
Solve 3 over 2 * w = 66.
(A) 33, (B) 44, (C) 88, (D) 99
Answer: B
Write 5.875 as a mixed number or fraction in simplest form.
(A) 5 and 8 over 9, (B) 5 and 7 over 8, (C) 7 over 8, (D) 5 and 87 over 105
Answer: B
Solve the equation 124 = m + 34.
(A) 158, (B) 90, (C) 88, (D) 4,216
Answer: B
Zelma buys p pounds of bananas for 40 cents per pound. She pays the clerk with a twenty-dollar bill. The clerk subtracts the total cost of the bananas from the twenty-dollar bill to determine the amount of change to give Zelma. Which expression represents the amount of change Zelma should receive?
(A) p - 20, (B) 20 - 40p, (C) 20 - 0.40p, (D) 0.40p - 20
Answer: C
Please answer the following question with just the correct option (A, B, C, or D) without any explanation or additional text.
Theresa had a bag of 72 marbles. She put the marbles into 9 equal groups. Which number sentence shows how to find the number of marbles Theresa put into each group?
(A) '72 ÷ 9 = 8', (B) '72 – 9 = 63', (C) '9 + 72 = 81', (D) '9 ÷ 72 = 0.125'
Answer:","","","","","","","","","","","","","","","","","","","","","",""
"","","","","","","","","","","","","","","","","","","","","","","","","","","","A","","","","","","","","","","","","","","","","","","","","",""
"","","","","","","","","","","","","","","","","","","","","","","","","","","","","false","180","-1","A","true","true","defer","[]","false","0","false","0","{""elementary_mathematics"":[""40/50"",""31/50"",""9/10""],""high_school_mathematics"":[""28/51"",""23/51"",""4/8""],""college_mathematics"":[""22/50"",""26/50"",""3/6""]}","{""elementary_mathematics"":false,""college_mathematics"":false,""high_school_mathematics"":false}","You should attempt this problem by yourself","null","null","null","null","true",""
"image-keyboard-response","37","1891558","0.0-4.0-2.10","r9q5pcn38a7hzw5","67a7c801931fc920c139e3b8","67b62c430b9240ccd8986e70","67b6381c8493c69b9e6fa10c","2","null","","","null","","","Theresa had a bag of 72 marbles. She put the marbles into 9 equal groups. Which number sentence shows how to find the number of marbles Theresa put into each group?","[""72 ÷ 9 = 8"",""72 – 9 = 63"",""9 + 72 = 81"",""9 ÷ 72 = 0.125""]","A","A","modiste","","A","157","algLinUCB_0.9","diff-topics","elementary_mathematics","The following are multiple choice questions about high_school_mathematics.
Colton and his dad bought a gallon of paint that cost $13. They also bought 2 brushes that cost $9 each. What was the total cost, not including tax, of the brushes and the paint they bought?
(A) $22, (B) $24, (C) $31, (D) $35
Answer: C
Solve for y. y – 2 + 3y = 10
(A) 2, (B) 3, (C) 4, (D) 5
Answer: B
Solve 3 over 2 * w = 66.
(A) 33, (B) 44, (C) 88, (D) 99
Answer: B
Write 5.875 as a mixed number or fraction in simplest form.
(A) 5 and 8 over 9, (B) 5 and 7 over 8, (C) 7 over 8, (D) 5 and 87 over 105
Answer: B
Solve the equation 124 = m + 34.
(A) 158, (B) 90, (C) 88, (D) 4,216
Answer: B
Zelma buys p pounds of bananas for 40 cents per pound. She pays the clerk with a twenty-dollar bill. The clerk subtracts the total cost of the bananas from the twenty-dollar bill to determine the amount of change to give Zelma. Which expression represents the amount of change Zelma should receive?
(A) p - 20, (B) 20 - 40p, (C) 20 - 0.40p, (D) 0.40p - 20
Answer: C
Please answer the following question with just the correct option (A, B, C, or D) without any explanation or additional text.
Theresa had a bag of 72 marbles. She put the marbles into 9 equal groups. Which number sentence shows how to find the number of marbles Theresa put into each group?
(A) '72 ÷ 9 = 8', (B) '72 – 9 = 63', (C) '9 + 72 = 81', (D) '9 ÷ 72 = 0.125'
Answer:","","","","","","","","","","","","","","","","","","","","","","feedback_imgs/Correct.png"
"call-function","38","1891559","0.0-4.0-0.11","r9q5pcn38a7hzw5","67a7c801931fc920c139e3b8","67b62c430b9240ccd8986e70","67b6381c8493c69b9e6fa10c","2","","","","","","defer","If f is a continuously differentiable real-valued function defined on the open interval (-1, 4) such that f(3) = 5 and f'(x) ≥ -1 for all x, what is the greatest possible value of f(0)?","[""3"",""4"",""5"",""8""]","D","B","modiste","","D","162","algLinUCB_0.9","diff-topics","college_mathematics","The following are multiple choice questions about high_school_mathematics.
Colton and his dad bought a gallon of paint that cost $13. They also bought 2 brushes that cost $9 each. What was the total cost, not including tax, of the brushes and the paint they bought?
(A) $22, (B) $24, (C) $31, (D) $35
Answer: C
Solve for y. y – 2 + 3y = 10
(A) 2, (B) 3, (C) 4, (D) 5
Answer: B
Solve 3 over 2 * w = 66.
(A) 33, (B) 44, (C) 88, (D) 99
Answer: B
Write 5.875 as a mixed number or fraction in simplest form.
(A) 5 and 8 over 9, (B) 5 and 7 over 8, (C) 7 over 8, (D) 5 and 87 over 105
Answer: B
Solve the equation 124 = m + 34.
(A) 158, (B) 90, (C) 88, (D) 4,216
Answer: B
Zelma buys p pounds of bananas for 40 cents per pound. She pays the clerk with a twenty-dollar bill. The clerk subtracts the total cost of the bananas from the twenty-dollar bill to determine the amount of change to give Zelma. Which expression represents the amount of change Zelma should receive?
(A) p - 20, (B) 20 - 40p, (C) 20 - 0.40p, (D) 0.40p - 20
Answer: C
Please answer the following question with just the correct option (A, B, C, or D) without any explanation or additional text.
If f is a continuously differentiable real-valued function defined on the open interval (-1, 4) such that f(3) = 5 and f'(x) ≥ -1 for all x, what is the greatest possible value of f(0)?
(A) '3', (B) '4', (C) '5', (D) '8'
Answer:","","","","","","","","","","","","","","","","","","","","","",""
"survey-html-form","39","1937443","0.0-4.0-1.11","r9q5pcn38a7hzw5","67a7c801931fc920c139e3b8","67b62c430b9240ccd8986e70","67b6381c8493c69b9e6fa10c","2","45883","","","{""mcAnswer"":""D""}","","","If f is a continuously differentiable real-valued function defined on the open interval (-1, 4) such that f(3) = 5 and f'(x) ≥ -1 for all x, what is the greatest possible value of f(0)?","[""3"",""4"",""5"",""8""]","D","B","modiste","","D","162","algLinUCB_0.9","diff-topics","college_mathematics","The following are multiple choice questions about high_school_mathematics.
Colton and his dad bought a gallon of paint that cost $13. They also bought 2 brushes that cost $9 each. What was the total cost, not including tax, of the brushes and the paint they bought?
(A) $22, (B) $24, (C) $31, (D) $35
Answer: C
Solve for y. y – 2 + 3y = 10
(A) 2, (B) 3, (C) 4, (D) 5
Answer: B
Solve 3 over 2 * w = 66.
(A) 33, (B) 44, (C) 88, (D) 99
Answer: B
Write 5.875 as a mixed number or fraction in simplest form.
(A) 5 and 8 over 9, (B) 5 and 7 over 8, (C) 7 over 8, (D) 5 and 87 over 105
Answer: B
Solve the equation 124 = m + 34.
(A) 158, (B) 90, (C) 88, (D) 4,216
Answer: B
Zelma buys p pounds of bananas for 40 cents per pound. She pays the clerk with a twenty-dollar bill. The clerk subtracts the total cost of the bananas from the twenty-dollar bill to determine the amount of change to give Zelma. Which expression represents the amount of change Zelma should receive?
(A) p - 20, (B) 20 - 40p, (C) 20 - 0.40p, (D) 0.40p - 20
Answer: C
Please answer the following question with just the correct option (A, B, C, or D) without any explanation or additional text.
If f is a continuously differentiable real-valued function defined on the open interval (-1, 4) such that f(3) = 5 and f'(x) ≥ -1 for all x, what is the greatest possible value of f(0)?
(A) '3', (B) '4', (C) '5', (D) '8'
Answer:","","","","","","","","","","","","","","","","","","","","","",""
"","","","","","","","","","","","","","","","","","","","","","","","","","","","D","","","","","","","","","","","","","","","","","","","","",""
"","","","","","","","","","","","","","","","","","","","","","","","","","","","","false","190","-1","D","true","true","defer","[]","false","0","false","0","{""elementary_mathematics"":[""40/50"",""31/50"",""9/10""],""high_school_mathematics"":[""28/51"",""23/51"",""4/8""],""college_mathematics"":[""22/50"",""26/50"",""4/7""]}","{""elementary_mathematics"":false,""college_mathematics"":false,""high_school_mathematics"":false}","You should outsource this problem to the AI agent","null","null","false","null","null",""
"image-keyboard-response","40","1938958","0.0-4.0-2.11","r9q5pcn38a7hzw5","67a7c801931fc920c139e3b8","67b62c430b9240ccd8986e70","67b6381c8493c69b9e6fa10c","2","null","","","null","","","If f is a continuously differentiable real-valued function defined on the open interval (-1, 4) such that f(3) = 5 and f'(x) ≥ -1 for all x, what is the greatest possible value of f(0)?","[""3"",""4"",""5"",""8""]","D","B","modiste","","D","162","algLinUCB_0.9","diff-topics","college_mathematics","The following are multiple choice questions about high_school_mathematics.
Colton and his dad bought a gallon of paint that cost $13. They also bought 2 brushes that cost $9 each. What was the total cost, not including tax, of the brushes and the paint they bought?
(A) $22, (B) $24, (C) $31, (D) $35
Answer: C
Solve for y. y – 2 + 3y = 10
(A) 2, (B) 3, (C) 4, (D) 5
Answer: B
Solve 3 over 2 * w = 66.
(A) 33, (B) 44, (C) 88, (D) 99
Answer: B
Write 5.875 as a mixed number or fraction in simplest form.
(A) 5 and 8 over 9, (B) 5 and 7 over 8, (C) 7 over 8, (D) 5 and 87 over 105
Answer: B
Solve the equation 124 = m + 34.
(A) 158, (B) 90, (C) 88, (D) 4,216
Answer: B
Zelma buys p pounds of bananas for 40 cents per pound. She pays the clerk with a twenty-dollar bill. The clerk subtracts the total cost of the bananas from the twenty-dollar bill to determine the amount of change to give Zelma. Which expression represents the amount of change Zelma should receive?
(A) p - 20, (B) 20 - 40p, (C) 20 - 0.40p, (D) 0.40p - 20
Answer: C
Please answer the following question with just the correct option (A, B, C, or D) without any explanation or additional text.
If f is a continuously differentiable real-valued function defined on the open interval (-1, 4) such that f(3) = 5 and f'(x) ≥ -1 for all x, what is the greatest possible value of f(0)?
(A) '3', (B) '4', (C) '5', (D) '8'
Answer:","","","","","","","","","","","","","","","","","","","","","","feedback_imgs/Correct.png"
"call-function","41","1938958","0.0-4.0-0.12","r9q5pcn38a7hzw5","67a7c801931fc920c139e3b8","67b62c430b9240ccd8986e70","67b6381c8493c69b9e6fa10c","2","","","","","","defer","For which p is the norm ||x||_p expressable as an inner product?","[""1"",""2"",""p >= 1"",""infinity""]","B","C","modiste","","B","171","algLinUCB_0.9","diff-topics","college_mathematics","The following are multiple choice questions about high_school_mathematics.
Colton and his dad bought a gallon of paint that cost $13. They also bought 2 brushes that cost $9 each. What was the total cost, not including tax, of the brushes and the paint they bought?
(A) $22, (B) $24, (C) $31, (D) $35
Answer: C
Solve for y. y – 2 + 3y = 10
(A) 2, (B) 3, (C) 4, (D) 5
Answer: B
Solve 3 over 2 * w = 66.
(A) 33, (B) 44, (C) 88, (D) 99
Answer: B
Write 5.875 as a mixed number or fraction in simplest form.
(A) 5 and 8 over 9, (B) 5 and 7 over 8, (C) 7 over 8, (D) 5 and 87 over 105
Answer: B
Solve the equation 124 = m + 34.
(A) 158, (B) 90, (C) 88, (D) 4,216
Answer: B
Zelma buys p pounds of bananas for 40 cents per pound. She pays the clerk with a twenty-dollar bill. The clerk subtracts the total cost of the bananas from the twenty-dollar bill to determine the amount of change to give Zelma. Which expression represents the amount of change Zelma should receive?
(A) p - 20, (B) 20 - 40p, (C) 20 - 0.40p, (D) 0.40p - 20
Answer: C
Please answer the following question with just the correct option (A, B, C, or D) without any explanation or additional text.
For which p is the norm ||x||_p expressable as an inner product?
(A) '1', (B) '2', (C) 'p >= 1', (D) 'infinity'
Answer:","","","","","","","","","","","","","","","","","","","","","",""
"survey-html-form","42","1999644","0.0-4.0-1.12","r9q5pcn38a7hzw5","67a7c801931fc920c139e3b8","67b62c430b9240ccd8986e70","67b6381c8493c69b9e6fa10c","2","60683","","","{""mcAnswer"":""B""}","","","For which p is the norm ||x||_p expressable as an inner product?","[""1"",""2"",""p >= 1"",""infinity""]","B","C","modiste","","B","171","algLinUCB_0.9","diff-topics","college_mathematics","The following are multiple choice questions about high_school_mathematics.
Colton and his dad bought a gallon of paint that cost $13. They also bought 2 brushes that cost $9 each. What was the total cost, not including tax, of the brushes and the paint they bought?
(A) $22, (B) $24, (C) $31, (D) $35
Answer: C
Solve for y. y – 2 + 3y = 10
(A) 2, (B) 3, (C) 4, (D) 5
Answer: B
Solve 3 over 2 * w = 66.
(A) 33, (B) 44, (C) 88, (D) 99
Answer: B
Write 5.875 as a mixed number or fraction in simplest form.
(A) 5 and 8 over 9, (B) 5 and 7 over 8, (C) 7 over 8, (D) 5 and 87 over 105
Answer: B
Solve the equation 124 = m + 34.
(A) 158, (B) 90, (C) 88, (D) 4,216
Answer: B
Zelma buys p pounds of bananas for 40 cents per pound. She pays the clerk with a twenty-dollar bill. The clerk subtracts the total cost of the bananas from the twenty-dollar bill to determine the amount of change to give Zelma. Which expression represents the amount of change Zelma should receive?
(A) p - 20, (B) 20 - 40p, (C) 20 - 0.40p, (D) 0.40p - 20
Answer: C
Please answer the following question with just the correct option (A, B, C, or D) without any explanation or additional text.
For which p is the norm ||x||_p expressable as an inner product?
(A) '1', (B) '2', (C) 'p >= 1', (D) 'infinity'
Answer:","","","","","","","","","","","","","","","","","","","","","",""
"","","","","","","","","","","","","","","","","","","","","","","","","","","","B","","","","","","","","","","","","","","","","","","","","",""
"","","","","","","","","","","","","","","","","","","","","","","","","","","","","false","200","-1","B","true","true","defer","[]","false","0","false","0","{""elementary_mathematics"":[""40/50"",""31/50"",""9/10""],""high_school_mathematics"":[""28/51"",""23/51"",""4/8""],""college_mathematics"":[""22/50"",""26/50"",""5/8""]}","{""elementary_mathematics"":false,""college_mathematics"":false,""high_school_mathematics"":false}","You should attempt this problem by yourself","null","null","null","null","true",""
"image-keyboard-response","43","2001294","0.0-4.0-2.12","r9q5pcn38a7hzw5","67a7c801931fc920c139e3b8","67b62c430b9240ccd8986e70","67b6381c8493c69b9e6fa10c","2","null","","","null","","","For which p is the norm ||x||_p expressable as an inner product?","[""1"",""2"",""p >= 1"",""infinity""]","B","C","modiste","","B","171","algLinUCB_0.9","diff-topics","college_mathematics","The following are multiple choice questions about high_school_mathematics.
Colton and his dad bought a gallon of paint that cost $13. They also bought 2 brushes that cost $9 each. What was the total cost, not including tax, of the brushes and the paint they bought?
(A) $22, (B) $24, (C) $31, (D) $35
Answer: C
Solve for y. y – 2 + 3y = 10
(A) 2, (B) 3, (C) 4, (D) 5
Answer: B
Solve 3 over 2 * w = 66.
(A) 33, (B) 44, (C) 88, (D) 99
Answer: B
Write 5.875 as a mixed number or fraction in simplest form.
(A) 5 and 8 over 9, (B) 5 and 7 over 8, (C) 7 over 8, (D) 5 and 87 over 105
Answer: B
Solve the equation 124 = m + 34.
(A) 158, (B) 90, (C) 88, (D) 4,216
Answer: B
Zelma buys p pounds of bananas for 40 cents per pound. She pays the clerk with a twenty-dollar bill. The clerk subtracts the total cost of the bananas from the twenty-dollar bill to determine the amount of change to give Zelma. Which expression represents the amount of change Zelma should receive?
(A) p - 20, (B) 20 - 40p, (C) 20 - 0.40p, (D) 0.40p - 20
Answer: C
Please answer the following question with just the correct option (A, B, C, or D) without any explanation or additional text.
For which p is the norm ||x||_p expressable as an inner product?
(A) '1', (B) '2', (C) 'p >= 1', (D) 'infinity'
Answer:","","","","","","","","","","","","","","","","","","","","","","feedback_imgs/Correct.png"
"call-function","44","2001295","0.0-4.0-0.13","r9q5pcn38a7hzw5","67a7c801931fc920c139e3b8","67b62c430b9240ccd8986e70","67b6381c8493c69b9e6fa10c","2","","","","","","defer","What is the smallest positive integer with factors of 16, 15, and 12?","[""240"",""120"",""60"",""111""]","B","A","modiste","","A","123","algLinUCB_0.9","diff-topics","high_school_mathematics","The following are multiple choice questions about high_school_mathematics.
Colton and his dad bought a gallon of paint that cost $13. They also bought 2 brushes that cost $9 each. What was the total cost, not including tax, of the brushes and the paint they bought?
(A) $22, (B) $24, (C) $31, (D) $35
Answer: C
Solve for y. y – 2 + 3y = 10
(A) 2, (B) 3, (C) 4, (D) 5
Answer: B
Solve 3 over 2 * w = 66.
(A) 33, (B) 44, (C) 88, (D) 99
Answer: B
Write 5.875 as a mixed number or fraction in simplest form.
(A) 5 and 8 over 9, (B) 5 and 7 over 8, (C) 7 over 8, (D) 5 and 87 over 105
Answer: B
Solve the equation 124 = m + 34.
(A) 158, (B) 90, (C) 88, (D) 4,216
Answer: B
Zelma buys p pounds of bananas for 40 cents per pound. She pays the clerk with a twenty-dollar bill. The clerk subtracts the total cost of the bananas from the twenty-dollar bill to determine the amount of change to give Zelma. Which expression represents the amount of change Zelma should receive?
(A) p - 20, (B) 20 - 40p, (C) 20 - 0.40p, (D) 0.40p - 20
Answer: C
Please answer the following question with just the correct option (A, B, C, or D) without any explanation or additional text.
What is the smallest positive integer with factors of 16, 15, and 12?
(A) '12', (B) '22', (C) '840', (D) '240'
Answer:","","","","","","","","","","","","","","","","","","","","","",""
"survey-html-form","45","2072281","0.0-4.0-1.13","r9q5pcn38a7hzw5","67a7c801931fc920c139e3b8","67b62c430b9240ccd8986e70","67b6381c8493c69b9e6fa10c","2","70984","","","{""mcAnswer"":""A""}","","","What is the smallest positive integer with factors of 16, 15, and 12?","[""240"",""120"",""60"",""111""]","B","A","modiste","","A","123","algLinUCB_0.9","diff-topics","high_school_mathematics","The following are multiple choice questions about high_school_mathematics.
Colton and his dad bought a gallon of paint that cost $13. They also bought 2 brushes that cost $9 each. What was the total cost, not including tax, of the brushes and the paint they bought?
(A) $22, (B) $24, (C) $31, (D) $35
Answer: C
Solve for y. y – 2 + 3y = 10
(A) 2, (B) 3, (C) 4, (D) 5
Answer: B
Solve 3 over 2 * w = 66.
(A) 33, (B) 44, (C) 88, (D) 99
Answer: B
Write 5.875 as a mixed number or fraction in simplest form.
(A) 5 and 8 over 9, (B) 5 and 7 over 8, (C) 7 over 8, (D) 5 and 87 over 105
Answer: B
Solve the equation 124 = m + 34.
(A) 158, (B) 90, (C) 88, (D) 4,216
Answer: B
Zelma buys p pounds of bananas for 40 cents per pound. She pays the clerk with a twenty-dollar bill. The clerk subtracts the total cost of the bananas from the twenty-dollar bill to determine the amount of change to give Zelma. Which expression represents the amount of change Zelma should receive?
(A) p - 20, (B) 20 - 40p, (C) 20 - 0.40p, (D) 0.40p - 20
Answer: C
Please answer the following question with just the correct option (A, B, C, or D) without any explanation or additional text.
What is the smallest positive integer with factors of 16, 15, and 12?
(A) '12', (B) '22', (C) '840', (D) '240'
Answer:","","","","","","","","","","","","","","","","","","","","","",""
"","","","","","","","","","","","","","","","","","","","","","","","","","","","A","","","","","","","","","","","","","","","","","","","","",""
"","","","","","","","","","","","","","","","","","","","","","","","","","","","","false","210","-1","B","true","false","defer","[]","false","0","false","0","{""elementary_mathematics"":[""40/50"",""31/50"",""9/10""],""high_school_mathematics"":[""28/51"",""23/51"",""5/9""],""college_mathematics"":[""22/50"",""26/50"",""5/8""]}","{""elementary_mathematics"":false,""college_mathematics"":false,""high_school_mathematics"":false}","You should outsource this problem to a human agent","null","null","null","false","null",""
"image-keyboard-response","46","2073789","0.0-4.0-2.13","r9q5pcn38a7hzw5","67a7c801931fc920c139e3b8","67b62c430b9240ccd8986e70","67b6381c8493c69b9e6fa10c","2","null","","","null","","","What is the smallest positive integer with factors of 16, 15, and 12?","[""240"",""120"",""60"",""111""]","B","A","modiste","","A","123","algLinUCB_0.9","diff-topics","high_school_mathematics","The following are multiple choice questions about high_school_mathematics.
Colton and his dad bought a gallon of paint that cost $13. They also bought 2 brushes that cost $9 each. What was the total cost, not including tax, of the brushes and the paint they bought?
(A) $22, (B) $24, (C) $31, (D) $35
Answer: C
Solve for y. y – 2 + 3y = 10
(A) 2, (B) 3, (C) 4, (D) 5
Answer: B
Solve 3 over 2 * w = 66.
(A) 33, (B) 44, (C) 88, (D) 99
Answer: B
Write 5.875 as a mixed number or fraction in simplest form.
(A) 5 and 8 over 9, (B) 5 and 7 over 8, (C) 7 over 8, (D) 5 and 87 over 105
Answer: B
Solve the equation 124 = m + 34.
(A) 158, (B) 90, (C) 88, (D) 4,216
Answer: B
Zelma buys p pounds of bananas for 40 cents per pound. She pays the clerk with a twenty-dollar bill. The clerk subtracts the total cost of the bananas from the twenty-dollar bill to determine the amount of change to give Zelma. Which expression represents the amount of change Zelma should receive?
(A) p - 20, (B) 20 - 40p, (C) 20 - 0.40p, (D) 0.40p - 20
Answer: C
Please answer the following question with just the correct option (A, B, C, or D) without any explanation or additional text.
What is the smallest positive integer with factors of 16, 15, and 12?
(A) '12', (B) '22', (C) '840', (D) '240'
Answer:","","","","","","","","","","","","","","","","","","","","","","feedback_imgs/Correct.png"
"call-function","47","2073790","0.0-4.0-0.14","r9q5pcn38a7hzw5","67a7c801931fc920c139e3b8","67b62c430b9240ccd8986e70","67b6381c8493c69b9e6fa10c","2","","","","","","defer","Suppose A and B are n × n matrices with real entries. Which of the follow are TRUE?
I. The trace of A^2 is nonnegative.
II. If A^2 = A, then the trace of A is nonnegative.
III. The trace of AB is the product of the traces of A and B.","[""II only"",""III only"",""I and II only"",""II and III only""]","C","C","modiste","","A","163","algLinUCB_0.9","diff-topics","college_mathematics","The following are multiple choice questions about high_school_mathematics.
Colton and his dad bought a gallon of paint that cost $13. They also bought 2 brushes that cost $9 each. What was the total cost, not including tax, of the brushes and the paint they bought?
(A) $22, (B) $24, (C) $31, (D) $35
Answer: C
Solve for y. y – 2 + 3y = 10
(A) 2, (B) 3, (C) 4, (D) 5
Answer: B
Solve 3 over 2 * w = 66.
(A) 33, (B) 44, (C) 88, (D) 99
Answer: B
Write 5.875 as a mixed number or fraction in simplest form.
(A) 5 and 8 over 9, (B) 5 and 7 over 8, (C) 7 over 8, (D) 5 and 87 over 105
Answer: B
Solve the equation 124 = m + 34.
(A) 158, (B) 90, (C) 88, (D) 4,216
Answer: B
Zelma buys p pounds of bananas for 40 cents per pound. She pays the clerk with a twenty-dollar bill. The clerk subtracts the total cost of the bananas from the twenty-dollar bill to determine the amount of change to give Zelma. Which expression represents the amount of change Zelma should receive?
(A) p - 20, (B) 20 - 40p, (C) 20 - 0.40p, (D) 0.40p - 20
Answer: C
Please answer the following question with just the correct option (A, B, C, or D) without any explanation or additional text.
Suppose A and B are n × n matrices with real entries. Which of the follow are TRUE?
I. The trace of A^2 is nonnegative.
II. If A^2 = A, then the trace of A is nonnegative.
III. The trace of AB is the product of the traces of A and B.
(A) 'II only', (B) 'III only', (C) 'I and II only', (D) 'II and III only'
Answer:","","","","","","","","","","","","","","","","","","","","","",""
"survey-html-form","48","2120657","0.0-4.0-1.14","r9q5pcn38a7hzw5","67a7c801931fc920c139e3b8","67b62c430b9240ccd8986e70","67b6381c8493c69b9e6fa10c","2","46864","","","{""mcAnswer"":""C""}","","","Suppose A and B are n × n matrices with real entries. Which of the follow are TRUE?
I. The trace of A^2 is nonnegative.
II. If A^2 = A, then the trace of A is nonnegative.
III. The trace of AB is the product of the traces of A and B.","[""II only"",""III only"",""I and II only"",""II and III only""]","C","C","modiste","","A","163","algLinUCB_0.9","diff-topics","college_mathematics","The following are multiple choice questions about high_school_mathematics.
Colton and his dad bought a gallon of paint that cost $13. They also bought 2 brushes that cost $9 each. What was the total cost, not including tax, of the brushes and the paint they bought?
(A) $22, (B) $24, (C) $31, (D) $35
Answer: C
Solve for y. y – 2 + 3y = 10
(A) 2, (B) 3, (C) 4, (D) 5
Answer: B
Solve 3 over 2 * w = 66.
(A) 33, (B) 44, (C) 88, (D) 99
Answer: B
Write 5.875 as a mixed number or fraction in simplest form.
(A) 5 and 8 over 9, (B) 5 and 7 over 8, (C) 7 over 8, (D) 5 and 87 over 105
Answer: B
Solve the equation 124 = m + 34.
(A) 158, (B) 90, (C) 88, (D) 4,216
Answer: B
Zelma buys p pounds of bananas for 40 cents per pound. She pays the clerk with a twenty-dollar bill. The clerk subtracts the total cost of the bananas from the twenty-dollar bill to determine the amount of change to give Zelma. Which expression represents the amount of change Zelma should receive?
(A) p - 20, (B) 20 - 40p, (C) 20 - 0.40p, (D) 0.40p - 20
Answer: C
Please answer the following question with just the correct option (A, B, C, or D) without any explanation or additional text.
Suppose A and B are n × n matrices with real entries. Which of the follow are TRUE?
I. The trace of A^2 is nonnegative.
II. If A^2 = A, then the trace of A is nonnegative.
III. The trace of AB is the product of the traces of A and B.
(A) 'II only', (B) 'III only', (C) 'I and II only', (D) 'II and III only'
Answer:","","","","","","","","","","","","","","","","","","","","","",""
"","","","","","","","","","","","","","","","","","","","","","","","","","","","C","","","","","","","","","","","","","","","","","","","","",""
"","","","","","","","","","","","","","","","","","","","","","","","","","","","","false","210","-1","C","false","false","defer","[]","false","0","false","0","{""elementary_mathematics"":[""40/50"",""31/50"",""9/10""],""high_school_mathematics"":[""28/51"",""23/51"",""5/9""],""college_mathematics"":[""22/50"",""26/50"",""5/9""]}","{""elementary_mathematics"":false,""college_mathematics"":true,""high_school_mathematics"":false}","You should attempt this problem by yourself","null","null","null","null","true",""
"image-keyboard-response","49","2122168","0.0-4.0-2.14","r9q5pcn38a7hzw5","67a7c801931fc920c139e3b8","67b62c430b9240ccd8986e70","67b6381c8493c69b9e6fa10c","2","null","","","null","","","Suppose A and B are n × n matrices with real entries. Which of the follow are TRUE?
I. The trace of A^2 is nonnegative.
II. If A^2 = A, then the trace of A is nonnegative.
III. The trace of AB is the product of the traces of A and B.","[""II only"",""III only"",""I and II only"",""II and III only""]","C","C","modiste","","A","163","algLinUCB_0.9","diff-topics","college_mathematics","The following are multiple choice questions about high_school_mathematics.
Colton and his dad bought a gallon of paint that cost $13. They also bought 2 brushes that cost $9 each. What was the total cost, not including tax, of the brushes and the paint they bought?
(A) $22, (B) $24, (C) $31, (D) $35
Answer: C
Solve for y. y – 2 + 3y = 10
(A) 2, (B) 3, (C) 4, (D) 5
Answer: B
Solve 3 over 2 * w = 66.
(A) 33, (B) 44, (C) 88, (D) 99
Answer: B
Write 5.875 as a mixed number or fraction in simplest form.
(A) 5 and 8 over 9, (B) 5 and 7 over 8, (C) 7 over 8, (D) 5 and 87 over 105
Answer: B
Solve the equation 124 = m + 34.
(A) 158, (B) 90, (C) 88, (D) 4,216
Answer: B
Zelma buys p pounds of bananas for 40 cents per pound. She pays the clerk with a twenty-dollar bill. The clerk subtracts the total cost of the bananas from the twenty-dollar bill to determine the amount of change to give Zelma. Which expression represents the amount of change Zelma should receive?
(A) p - 20, (B) 20 - 40p, (C) 20 - 0.40p, (D) 0.40p - 20
Answer: C
Please answer the following question with just the correct option (A, B, C, or D) without any explanation or additional text.
Suppose A and B are n × n matrices with real entries. Which of the follow are TRUE?
I. The trace of A^2 is nonnegative.
II. If A^2 = A, then the trace of A is nonnegative.
III. The trace of AB is the product of the traces of A and B.
(A) 'II only', (B) 'III only', (C) 'I and II only', (D) 'II and III only'
Answer:","","","","","","","","","","","","","","","","","","","","","","feedback_imgs/Incorrect.png"
"call-function","50","2122169","0.0-4.0-0.15","r9q5pcn38a7hzw5","67a7c801931fc920c139e3b8","67b62c430b9240ccd8986e70","67b6381c8493c69b9e6fa10c","2","","","","","","defer","The curves y = (sin x + cos x)^4 and y = (sin x - cos x)^4 intersect at x = 0. If a is the smallest positive value of x at which these curves next intersect, determine the area between these curves from x = 0 to x = a.","[""2"",""π"",""4"",""3π/2""]","B","A","modiste","","C","178","algLinUCB_0.9","diff-topics","college_mathematics","The following are multiple choice questions about high_school_mathematics.
Colton and his dad bought a gallon of paint that cost $13. They also bought 2 brushes that cost $9 each. What was the total cost, not including tax, of the brushes and the paint they bought?
(A) $22, (B) $24, (C) $31, (D) $35
Answer: C
Solve for y. y – 2 + 3y = 10
(A) 2, (B) 3, (C) 4, (D) 5
Answer: B
Solve 3 over 2 * w = 66.
(A) 33, (B) 44, (C) 88, (D) 99
Answer: B
Write 5.875 as a mixed number or fraction in simplest form.
(A) 5 and 8 over 9, (B) 5 and 7 over 8, (C) 7 over 8, (D) 5 and 87 over 105
Answer: B
Solve the equation 124 = m + 34.
(A) 158, (B) 90, (C) 88, (D) 4,216
Answer: B
Zelma buys p pounds of bananas for 40 cents per pound. She pays the clerk with a twenty-dollar bill. The clerk subtracts the total cost of the bananas from the twenty-dollar bill to determine the amount of change to give Zelma. Which expression represents the amount of change Zelma should receive?
(A) p - 20, (B) 20 - 40p, (C) 20 - 0.40p, (D) 0.40p - 20
Answer: C
Please answer the following question with just the correct option (A, B, C, or D) without any explanation or additional text.
The curves y = (sin x + cos x)^4 and y = (sin x - cos x)^4 intersect at x = 0. If a is the smallest positive value of x at which these curves next intersect, determine the area between these curves from x = 0 to x = a.
(A) '2', (B) 'π', (C) '4', (D) '3π/2'
Answer:","","","","","","","","","","true","2","","","","","","","","","","",""
"survey-html-form","51","2199329","0.0-4.0-1.15","r9q5pcn38a7hzw5","67a7c801931fc920c139e3b8","67b62c430b9240ccd8986e70","67b6381c8493c69b9e6fa10c","2","77156","","","{""mcAnswer"":""B""}","","","The curves y = (sin x + cos x)^4 and y = (sin x - cos x)^4 intersect at x = 0. If a is the smallest positive value of x at which these curves next intersect, determine the area between these curves from x = 0 to x = a.","[""2"",""π"",""4"",""3π/2""]","B","A","modiste","","C","178","algLinUCB_0.9","diff-topics","college_mathematics","The following are multiple choice questions about high_school_mathematics.
Colton and his dad bought a gallon of paint that cost $13. They also bought 2 brushes that cost $9 each. What was the total cost, not including tax, of the brushes and the paint they bought?
(A) $22, (B) $24, (C) $31, (D) $35
Answer: C
Solve for y. y – 2 + 3y = 10
(A) 2, (B) 3, (C) 4, (D) 5
Answer: B
Solve 3 over 2 * w = 66.
(A) 33, (B) 44, (C) 88, (D) 99
Answer: B
Write 5.875 as a mixed number or fraction in simplest form.
(A) 5 and 8 over 9, (B) 5 and 7 over 8, (C) 7 over 8, (D) 5 and 87 over 105
Answer: B
Solve the equation 124 = m + 34.
(A) 158, (B) 90, (C) 88, (D) 4,216
Answer: B
Zelma buys p pounds of bananas for 40 cents per pound. She pays the clerk with a twenty-dollar bill. The clerk subtracts the total cost of the bananas from the twenty-dollar bill to determine the amount of change to give Zelma. Which expression represents the amount of change Zelma should receive?
(A) p - 20, (B) 20 - 40p, (C) 20 - 0.40p, (D) 0.40p - 20
Answer: C
Please answer the following question with just the correct option (A, B, C, or D) without any explanation or additional text.
The curves y = (sin x + cos x)^4 and y = (sin x - cos x)^4 intersect at x = 0. If a is the smallest positive value of x at which these curves next intersect, determine the area between these curves from x = 0 to x = a.
(A) '2', (B) 'π', (C) '4', (D) '3π/2'
