"trial_type","trial_index","time_elapsed","internal_node_id","subject","prolific_id","study_id","session_id","condition","rt","url","view_history","response","question_order","value","question","options","llm_answer","population_answer","task","subj_id","label","example_id","variant","main_variant","topic","prompt"
"pavlovia","0","1238","0.0-0.0","81tpokkhsj1yna2","637656f618065b68614915b0","67b62c430b9240ccd8986e70","67b636aa71a8306e21219e12","2","","","","","","","","","","","","","","","","","",""
"external-html","1","19886","0.0-1.0","81tpokkhsj1yna2","637656f618065b68614915b0","67b62c430b9240ccd8986e70","67b636aa71a8306e21219e12","2","18493.60000038147","consent.html","","","","","","","","","","","","","","","",""
"instructions","2","39680","0.0-2.0-0.0","81tpokkhsj1yna2","637656f618065b68614915b0","67b62c430b9240ccd8986e70","67b636aa71a8306e21219e12","2","19791.89999961853","","[{""page_index"":0,""viewing_time"":3724.3999996185303},{""page_index"":1,""viewing_time"":1867.6000003814697},{""page_index"":2,""viewing_time"":804.8999996185303},{""page_index"":3,""viewing_time"":743.1000003814697},{""page_index"":4,""viewing_time"":5179.60000038147},{""page_index"":5,""viewing_time"":2699.8999996185303},{""page_index"":6,""viewing_time"":2241.800000190735},{""page_index"":7,""viewing_time"":2530}]","","","","","","","","","","","","","","",""
"survey-multi-choice","3","46457","0.0-2.0-1.0","81tpokkhsj1yna2","637656f618065b68614915b0","67b62c430b9240ccd8986e70","67b636aa71a8306e21219e12","2","6771.60000038147","","","{""Q0"":""The answer to a mutliple choice question."",""Q1"":""Clicking on a radio button.""}","[0,1]","","","","","","","","","","","","",""
"instructions","4","48973","0.0-3.0","81tpokkhsj1yna2","637656f618065b68614915b0","67b62c430b9240ccd8986e70","67b636aa71a8306e21219e12","2","2515","","[{""page_index"":0,""viewing_time"":2514.699999809265}]","","","","","","","","","","","","","","",""
"call-function","5","48976","0.0-4.0-0.0","81tpokkhsj1yna2","637656f618065b68614915b0","67b62c430b9240ccd8986e70","67b636aa71a8306e21219e12","2","","","","","","defer","The temperature dropped 11°F between 6 P.M. and 10 P.M. It was 84°F at 10 P.M. Write and solve an equation to find t the temperature at 6 P.M.","[""84 − 11 = t; 73°F"",""t − 84 = 11; 95°F"",""84 − t = 11; 73°F"",""t − 11 = 84; 95°F""]","D","C","modiste","","D","156","algLinUCB_0.9","diff-topics","elementary_mathematics","The following are multiple choice questions about high_school_mathematics.
Colton and his dad bought a gallon of paint that cost $13. They also bought 2 brushes that cost $9 each. What was the total cost, not including tax, of the brushes and the paint they bought?
(A) $22, (B) $24, (C) $31, (D) $35
Answer: C
Solve for y. y – 2 + 3y = 10
(A) 2, (B) 3, (C) 4, (D) 5
Answer: B
Solve 3 over 2 * w = 66.
(A) 33, (B) 44, (C) 88, (D) 99
Answer: B
Write 5.875 as a mixed number or fraction in simplest form.
(A) 5 and 8 over 9, (B) 5 and 7 over 8, (C) 7 over 8, (D) 5 and 87 over 105
Answer: B
Solve the equation 124 = m + 34.
(A) 158, (B) 90, (C) 88, (D) 4,216
Answer: B
Zelma buys p pounds of bananas for 40 cents per pound. She pays the clerk with a twenty-dollar bill. The clerk subtracts the total cost of the bananas from the twenty-dollar bill to determine the amount of change to give Zelma. Which expression represents the amount of change Zelma should receive?
(A) p - 20, (B) 20 - 40p, (C) 20 - 0.40p, (D) 0.40p - 20
Answer: C
Please answer the following question with just the correct option (A, B, C, or D) without any explanation or additional text.
The temperature dropped 11°F between 6 P.M. and 10 P.M. It was 84°F at 10 P.M. Write and solve an equation to find t the temperature at 6 P.M.
(A) '84 − 11 = t; 73°F', (B) 't − 84 = 11; 95°F', (C) '84 − t = 11; 73°F', (D) 't − 11 = 84; 95°F'
Answer:"
