"trial_type","trial_index","time_elapsed","internal_node_id","subject","prolific_id","study_id","session_id","condition","rt","url","view_history","response","question_order","value","question","options","llm_answer","population_answer","task","subj_id","label","example_id","variant","main_variant","topic","prompt","0","btn_clicked","score","timeToClick","modelPred","humanCorrect","modelCorrect","interfaceType","modelPredDist","human_support_used","human_support_clicks","llm_support_used","llm_support_clicks","recommendation_lists","incorrect_answers_by_category","recommendation","LLM_outsourcing_overridden","human_outsourcing_overridden","ai_orch_agreement","human_orch_agreement","self_orch_agreement","stimulus"
"pavlovia","0","1293","0.0-0.0","d2q0tt9d96u8bev","67658116d1ff218b001f2bf1","67b62c430b9240ccd8986e70","67b6351e973e24adf84ba721","3","","","","","","","","","","","","","","","","","","","","","","","","","","","","","","","","","","","","","","","",""
"external-html","1","59737","0.0-1.0","d2q0tt9d96u8bev","67658116d1ff218b001f2bf1","67b62c430b9240ccd8986e70","67b6351e973e24adf84ba721","3","58268.5","consent.html","","","","","","","","","","","","","","","","","","","","","","","","","","","","","","","","","","","","","",""
"instructions","2","238855","0.0-2.0-0.0","d2q0tt9d96u8bev","67658116d1ff218b001f2bf1","67b62c430b9240ccd8986e70","67b6351e973e24adf84ba721","3","179114.6000000015","","[{""page_index"":0,""viewing_time"":39578.79999999702},{""page_index"":1,""viewing_time"":23448.70000000298},{""page_index"":2,""viewing_time"":29231.60000000149},{""page_index"":3,""viewing_time"":21105.79999999702},{""page_index"":4,""viewing_time"":11004},{""page_index"":5,""viewing_time"":39687.10000000149},{""page_index"":6,""viewing_time"":3073},{""page_index"":7,""viewing_time"":11983.79999999702}]","","","","","","","","","","","","","","","","","","","","","","","","","","","","","","","","","","","","",""
"survey-multi-choice","3","276472","0.0-2.0-1.0","d2q0tt9d96u8bev","67658116d1ff218b001f2bf1","67b62c430b9240ccd8986e70","67b6351e973e24adf84ba721","3","37605.10000000149","","","{""Q0"":""The answer to a mutliple choice question."",""Q1"":""Clicking on a radio button.""}","[0,1]","","","","","","","","","","","","","","","","","","","","","","","","","","","","","","","","","","",""
"instructions","4","308689","0.0-3.0","d2q0tt9d96u8bev","67658116d1ff218b001f2bf1","67b62c430b9240ccd8986e70","67b6351e973e24adf84ba721","3","32211.79999999702","","[{""page_index"":0,""viewing_time"":32210.79999999702}]","","","","","","","","","","","","","","","","","","","","","","","","","","","","","","","","","","","","",""
"call-function","5","308694","0.0-4.0-0.0","d2q0tt9d96u8bev","67658116d1ff218b001f2bf1","67b62c430b9240ccd8986e70","67b6351e973e24adf84ba721","3","","","","","","defer","In the equation |x-4| -10 = 2, what is the product of all possible values of x?","[""-8"",""128"",""-128"",""16""]","B","C","modiste","","C","189","algLinUCB_0.9","diff-topics","high_school_mathematics","The following are multiple choice questions about high_school_mathematics.
Colton and his dad bought a gallon of paint that cost $13. They also bought 2 brushes that cost $9 each. What was the total cost, not including tax, of the brushes and the paint they bought?
(A) $22, (B) $24, (C) $31, (D) $35
Answer: C
Solve for y. y – 2 + 3y = 10
(A) 2, (B) 3, (C) 4, (D) 5
Answer: B
Solve 3 over 2 * w = 66.
(A) 33, (B) 44, (C) 88, (D) 99
Answer: B
Write 5.875 as a mixed number or fraction in simplest form.
(A) 5 and 8 over 9, (B) 5 and 7 over 8, (C) 7 over 8, (D) 5 and 87 over 105
Answer: B
Solve the equation 124 = m + 34.
(A) 158, (B) 90, (C) 88, (D) 4,216
Answer: B
Zelma buys p pounds of bananas for 40 cents per pound. She pays the clerk with a twenty-dollar bill. The clerk subtracts the total cost of the bananas from the twenty-dollar bill to determine the amount of change to give Zelma. Which expression represents the amount of change Zelma should receive?
(A) p - 20, (B) 20 - 40p, (C) 20 - 0.40p, (D) 0.40p - 20
Answer: C
Please answer the following question with just the correct option (A, B, C, or D) without any explanation or additional text.
In the equation |x-4| -10 = 2, what is the product of all possible values of x?
(A) '-8', (B) '128', (C) '-128', (D) '16'
Answer:","","","","","","","","","","","","","","","","","","","","","",""
"survey-html-form","6","404604","0.0-4.0-1.0","d2q0tt9d96u8bev","67658116d1ff218b001f2bf1","67b62c430b9240ccd8986e70","67b6351e973e24adf84ba721","3","95895.89999999851","","","{""mcAnswer"":""D""}","","","In the equation |x-4| -10 = 2, what is the product of all possible values of x?","[""-8"",""128"",""-128"",""16""]","B","C","modiste","","C","189","algLinUCB_0.9","diff-topics","high_school_mathematics","The following are multiple choice questions about high_school_mathematics.
Colton and his dad bought a gallon of paint that cost $13. They also bought 2 brushes that cost $9 each. What was the total cost, not including tax, of the brushes and the paint they bought?
(A) $22, (B) $24, (C) $31, (D) $35
Answer: C
Solve for y. y – 2 + 3y = 10
(A) 2, (B) 3, (C) 4, (D) 5
Answer: B
Solve 3 over 2 * w = 66.
(A) 33, (B) 44, (C) 88, (D) 99
Answer: B
Write 5.875 as a mixed number or fraction in simplest form.
(A) 5 and 8 over 9, (B) 5 and 7 over 8, (C) 7 over 8, (D) 5 and 87 over 105
Answer: B
Solve the equation 124 = m + 34.
(A) 158, (B) 90, (C) 88, (D) 4,216
Answer: B
Zelma buys p pounds of bananas for 40 cents per pound. She pays the clerk with a twenty-dollar bill. The clerk subtracts the total cost of the bananas from the twenty-dollar bill to determine the amount of change to give Zelma. Which expression represents the amount of change Zelma should receive?
(A) p - 20, (B) 20 - 40p, (C) 20 - 0.40p, (D) 0.40p - 20
Answer: C
Please answer the following question with just the correct option (A, B, C, or D) without any explanation or additional text.
In the equation |x-4| -10 = 2, what is the product of all possible values of x?
(A) '-8', (B) '128', (C) '-128', (D) '16'
Answer:","","","","","","","","","","","","","","","","","","","","","",""
"","","","","","","","","","","","","","","","","","","","","","","","","","","","D","","","","","","","","","","","","","","","","","","","","",""
"","","","","","","","","","","","","","","","","","","","","","","","","","","","","false","100","-1","B","false","false","defer","[]","false","0","false","0","{""elementary_mathematics"":[""40/50"",""31/50"",""4 / 5""],""high_school_mathematics"":[""27/50"",""22/50"",""3/6""],""college_mathematics"":[""22/50"",""26/50"",""2 / 5""]}","{""high_school_mathematics"":true}","You should attempt this problem by yourself","null","null","null","null","true",""
"image-keyboard-response","7","406126","0.0-4.0-2.0","d2q0tt9d96u8bev","67658116d1ff218b001f2bf1","67b62c430b9240ccd8986e70","67b6351e973e24adf84ba721","3","null","","","null","","","In the equation |x-4| -10 = 2, what is the product of all possible values of x?","[""-8"",""128"",""-128"",""16""]","B","C","modiste","","C","189","algLinUCB_0.9","diff-topics","high_school_mathematics","The following are multiple choice questions about high_school_mathematics.
Colton and his dad bought a gallon of paint that cost $13. They also bought 2 brushes that cost $9 each. What was the total cost, not including tax, of the brushes and the paint they bought?
(A) $22, (B) $24, (C) $31, (D) $35
Answer: C
Solve for y. y – 2 + 3y = 10
(A) 2, (B) 3, (C) 4, (D) 5
Answer: B
Solve 3 over 2 * w = 66.
(A) 33, (B) 44, (C) 88, (D) 99
Answer: B
Write 5.875 as a mixed number or fraction in simplest form.
(A) 5 and 8 over 9, (B) 5 and 7 over 8, (C) 7 over 8, (D) 5 and 87 over 105
Answer: B
Solve the equation 124 = m + 34.
(A) 158, (B) 90, (C) 88, (D) 4,216
Answer: B
Zelma buys p pounds of bananas for 40 cents per pound. She pays the clerk with a twenty-dollar bill. The clerk subtracts the total cost of the bananas from the twenty-dollar bill to determine the amount of change to give Zelma. Which expression represents the amount of change Zelma should receive?
(A) p - 20, (B) 20 - 40p, (C) 20 - 0.40p, (D) 0.40p - 20
Answer: C
Please answer the following question with just the correct option (A, B, C, or D) without any explanation or additional text.
In the equation |x-4| -10 = 2, what is the product of all possible values of x?
(A) '-8', (B) '128', (C) '-128', (D) '16'
Answer:","","","","","","","","","","","","","","","","","","","","","","feedback_imgs/Incorrect.png"
"call-function","8","406133","0.0-4.0-0.1","d2q0tt9d96u8bev","67658116d1ff218b001f2bf1","67b62c430b9240ccd8986e70","67b6351e973e24adf84ba721","3","","","","","","defer","Find b if log_{b}343=-3/2.","[""3"",""1/49"",""1/7"",""7""]","C","B","modiste","","B","181","algLinUCB_0.9","diff-topics","high_school_mathematics","The following are multiple choice questions about high_school_mathematics.
Colton and his dad bought a gallon of paint that cost $13. They also bought 2 brushes that cost $9 each. What was the total cost, not including tax, of the brushes and the paint they bought?
(A) $22, (B) $24, (C) $31, (D) $35
Answer: C
Solve for y. y – 2 + 3y = 10
(A) 2, (B) 3, (C) 4, (D) 5
Answer: B
Solve 3 over 2 * w = 66.
(A) 33, (B) 44, (C) 88, (D) 99
Answer: B
Write 5.875 as a mixed number or fraction in simplest form.
(A) 5 and 8 over 9, (B) 5 and 7 over 8, (C) 7 over 8, (D) 5 and 87 over 105
Answer: B
Solve the equation 124 = m + 34.
(A) 158, (B) 90, (C) 88, (D) 4,216
Answer: B
Zelma buys p pounds of bananas for 40 cents per pound. She pays the clerk with a twenty-dollar bill. The clerk subtracts the total cost of the bananas from the twenty-dollar bill to determine the amount of change to give Zelma. Which expression represents the amount of change Zelma should receive?
(A) p - 20, (B) 20 - 40p, (C) 20 - 0.40p, (D) 0.40p - 20
Answer: C
Please answer the following question with just the correct option (A, B, C, or D) without any explanation or additional text.
Find b if log_{b}343=-3/2.
(A) '3', (B) '1/49', (C) '1/7', (D) '7'
Answer:","","","","","","","","","","true","2","","","","","","","","","","",""
"survey-html-form","9","467089","0.0-4.0-1.1","d2q0tt9d96u8bev","67658116d1ff218b001f2bf1","67b62c430b9240ccd8986e70","67b6351e973e24adf84ba721","3","60935.60000000149","","","{""mcAnswer"":""B""}","","","Find b if log_{b}343=-3/2.","[""3"",""1/49"",""1/7"",""7""]","C","B","modiste","","B","181","algLinUCB_0.9","diff-topics","high_school_mathematics","The following are multiple choice questions about high_school_mathematics.
Colton and his dad bought a gallon of paint that cost $13. They also bought 2 brushes that cost $9 each. What was the total cost, not including tax, of the brushes and the paint they bought?
(A) $22, (B) $24, (C) $31, (D) $35
Answer: C
Solve for y. y – 2 + 3y = 10
(A) 2, (B) 3, (C) 4, (D) 5
Answer: B
Solve 3 over 2 * w = 66.
(A) 33, (B) 44, (C) 88, (D) 99
Answer: B
Write 5.875 as a mixed number or fraction in simplest form.
(A) 5 and 8 over 9, (B) 5 and 7 over 8, (C) 7 over 8, (D) 5 and 87 over 105
Answer: B
Solve the equation 124 = m + 34.
(A) 158, (B) 90, (C) 88, (D) 4,216
Answer: B
Zelma buys p pounds of bananas for 40 cents per pound. She pays the clerk with a twenty-dollar bill. The clerk subtracts the total cost of the bananas from the twenty-dollar bill to determine the amount of change to give Zelma. Which expression represents the amount of change Zelma should receive?
(A) p - 20, (B) 20 - 40p, (C) 20 - 0.40p, (D) 0.40p - 20
Answer: C
Please answer the following question with just the correct option (A, B, C, or D) without any explanation or additional text.
Find b if log_{b}343=-3/2.
(A) '3', (B) '1/49', (C) '1/7', (D) '7'
Answer:","","","","","","","","","","","","","","","","","","","","","",""
"","","","","","","","","","","","","","","","","","","","","","","","","","","","B","","","","","","","","","","","","","","","","","","","","",""
"","","","","","","","","","","","","","","","","","","","","","","","","","","","","false","103","-1","C","true","false","defer","[]","true","2","false","0","{""elementary_mathematics"":[""40/50"",""31/50"",""4 / 5""],""high_school_mathematics"":[""28/51"",""22/50"",""3/6""],""college_mathematics"":[""22/50"",""26/50"",""2 / 5""]}","{""high_school_mathematics"":false}","You were wrong by yourself on high_school_mathematics last time. You should outsource this problem to a human agent","null","false","null","true","null",""
"image-keyboard-response","10","468599","0.0-4.0-2.1","d2q0tt9d96u8bev","67658116d1ff218b001f2bf1","67b62c430b9240ccd8986e70","67b6351e973e24adf84ba721","3","null","","","null","","","Find b if log_{b}343=-3/2.","[""3"",""1/49"",""1/7"",""7""]","C","B","modiste","","B","181","algLinUCB_0.9","diff-topics","high_school_mathematics","The following are multiple choice questions about high_school_mathematics.
Colton and his dad bought a gallon of paint that cost $13. They also bought 2 brushes that cost $9 each. What was the total cost, not including tax, of the brushes and the paint they bought?
(A) $22, (B) $24, (C) $31, (D) $35
Answer: C
Solve for y. y – 2 + 3y = 10
(A) 2, (B) 3, (C) 4, (D) 5
Answer: B
Solve 3 over 2 * w = 66.
(A) 33, (B) 44, (C) 88, (D) 99
Answer: B
Write 5.875 as a mixed number or fraction in simplest form.
(A) 5 and 8 over 9, (B) 5 and 7 over 8, (C) 7 over 8, (D) 5 and 87 over 105
Answer: B
Solve the equation 124 = m + 34.
(A) 158, (B) 90, (C) 88, (D) 4,216
Answer: B
Zelma buys p pounds of bananas for 40 cents per pound. She pays the clerk with a twenty-dollar bill. The clerk subtracts the total cost of the bananas from the twenty-dollar bill to determine the amount of change to give Zelma. Which expression represents the amount of change Zelma should receive?
(A) p - 20, (B) 20 - 40p, (C) 20 - 0.40p, (D) 0.40p - 20
Answer: C
Please answer the following question with just the correct option (A, B, C, or D) without any explanation or additional text.
Find b if log_{b}343=-3/2.
(A) '3', (B) '1/49', (C) '1/7', (D) '7'
Answer:","","","","","","","","","","","","","","","","","","","","","","feedback_imgs/Correct.png"
"call-function","11","468604","0.0-4.0-0.2","d2q0tt9d96u8bev","67658116d1ff218b001f2bf1","67b62c430b9240ccd8986e70","67b6351e973e24adf84ba721","3","","","","","","defer","Evaluate −2(x − 3) for x = 2.","[""−4"",""−2"",""10"",""2""]","B","D","modiste","","D","204","algLinUCB_0.9","diff-topics","elementary_mathematics","The following are multiple choice questions about high_school_mathematics.
Colton and his dad bought a gallon of paint that cost $13. They also bought 2 brushes that cost $9 each. What was the total cost, not including tax, of the brushes and the paint they bought?
(A) $22, (B) $24, (C) $31, (D) $35
Answer: C
Solve for y. y – 2 + 3y = 10
(A) 2, (B) 3, (C) 4, (D) 5
Answer: B
Solve 3 over 2 * w = 66.
(A) 33, (B) 44, (C) 88, (D) 99
Answer: B
Write 5.875 as a mixed number or fraction in simplest form.
(A) 5 and 8 over 9, (B) 5 and 7 over 8, (C) 7 over 8, (D) 5 and 87 over 105
Answer: B
Solve the equation 124 = m + 34.
(A) 158, (B) 90, (C) 88, (D) 4,216
Answer: B
Zelma buys p pounds of bananas for 40 cents per pound. She pays the clerk with a twenty-dollar bill. The clerk subtracts the total cost of the bananas from the twenty-dollar bill to determine the amount of change to give Zelma. Which expression represents the amount of change Zelma should receive?
(A) p - 20, (B) 20 - 40p, (C) 20 - 0.40p, (D) 0.40p - 20
Answer: C
Please answer the following question with just the correct option (A, B, C, or D) without any explanation or additional text.
Evaluate −2(x − 3) for x = 2.
(A) '−4', (B) '−2', (C) '10', (D) '2'
Answer:","","","","","","","","","","","","","","","","","","","","","",""
"survey-html-form","12","557432","0.0-4.0-1.2","d2q0tt9d96u8bev","67658116d1ff218b001f2bf1","67b62c430b9240ccd8986e70","67b6351e973e24adf84ba721","3","88805.70000000298","","","{""mcAnswer"":""B""}","","","Evaluate −2(x − 3) for x = 2.","[""−4"",""−2"",""10"",""2""]","B","D","modiste","","D","204","algLinUCB_0.9","diff-topics","elementary_mathematics","The following are multiple choice questions about high_school_mathematics.
Colton and his dad bought a gallon of paint that cost $13. They also bought 2 brushes that cost $9 each. What was the total cost, not including tax, of the brushes and the paint they bought?
(A) $22, (B) $24, (C) $31, (D) $35
Answer: C
Solve for y. y – 2 + 3y = 10
(A) 2, (B) 3, (C) 4, (D) 5
Answer: B
Solve 3 over 2 * w = 66.
(A) 33, (B) 44, (C) 88, (D) 99
Answer: B
Write 5.875 as a mixed number or fraction in simplest form.
(A) 5 and 8 over 9, (B) 5 and 7 over 8, (C) 7 over 8, (D) 5 and 87 over 105
Answer: B
Solve the equation 124 = m + 34.
(A) 158, (B) 90, (C) 88, (D) 4,216
Answer: B
Zelma buys p pounds of bananas for 40 cents per pound. She pays the clerk with a twenty-dollar bill. The clerk subtracts the total cost of the bananas from the twenty-dollar bill to determine the amount of change to give Zelma. Which expression represents the amount of change Zelma should receive?
(A) p - 20, (B) 20 - 40p, (C) 20 - 0.40p, (D) 0.40p - 20
Answer: C
Please answer the following question with just the correct option (A, B, C, or D) without any explanation or additional text.
Evaluate −2(x − 3) for x = 2.
(A) '−4', (B) '−2', (C) '10', (D) '2'
Answer:","","","","","","","","","","","","","","","","","","","","","",""
"","","","","","","","","","","","","","","","","","","","","","","","","","","","B","","","","","","","","","","","","","","","","","","","","",""
"","","","","","","","","","","","","","","","","","","","","","","","","","","","","false","103","-1","B","false","false","defer","[]","false","0","false","0","{""elementary_mathematics"":[""40/50"",""31/50"",""4/6""],""high_school_mathematics"":[""28/51"",""22/50"",""3/6""],""college_mathematics"":[""22/50"",""26/50"",""2 / 5""]}","{""high_school_mathematics"":false,""elementary_mathematics"":true}","You should attempt this problem by yourself","null","null","null","null","true",""
"image-keyboard-response","13","558942","0.0-4.0-2.2","d2q0tt9d96u8bev","67658116d1ff218b001f2bf1","67b62c430b9240ccd8986e70","67b6351e973e24adf84ba721","3","null","","","null","","","Evaluate −2(x − 3) for x = 2.","[""−4"",""−2"",""10"",""2""]","B","D","modiste","","D","204","algLinUCB_0.9","diff-topics","elementary_mathematics","The following are multiple choice questions about high_school_mathematics.
Colton and his dad bought a gallon of paint that cost $13. They also bought 2 brushes that cost $9 each. What was the total cost, not including tax, of the brushes and the paint they bought?
(A) $22, (B) $24, (C) $31, (D) $35
Answer: C
Solve for y. y – 2 + 3y = 10
(A) 2, (B) 3, (C) 4, (D) 5
Answer: B
Solve 3 over 2 * w = 66.
(A) 33, (B) 44, (C) 88, (D) 99
Answer: B
Write 5.875 as a mixed number or fraction in simplest form.
(A) 5 and 8 over 9, (B) 5 and 7 over 8, (C) 7 over 8, (D) 5 and 87 over 105
Answer: B
Solve the equation 124 = m + 34.
(A) 158, (B) 90, (C) 88, (D) 4,216
Answer: B
Zelma buys p pounds of bananas for 40 cents per pound. She pays the clerk with a twenty-dollar bill. The clerk subtracts the total cost of the bananas from the twenty-dollar bill to determine the amount of change to give Zelma. Which expression represents the amount of change Zelma should receive?
(A) p - 20, (B) 20 - 40p, (C) 20 - 0.40p, (D) 0.40p - 20
Answer: C
Please answer the following question with just the correct option (A, B, C, or D) without any explanation or additional text.
Evaluate −2(x − 3) for x = 2.
(A) '−4', (B) '−2', (C) '10', (D) '2'
Answer:","","","","","","","","","","","","","","","","","","","","","","feedback_imgs/Incorrect.png"
"call-function","14","558947","0.0-4.0-0.3","d2q0tt9d96u8bev","67658116d1ff218b001f2bf1","67b62c430b9240ccd8986e70","67b6351e973e24adf84ba721","3","","","","","","defer","Bacteria in a culture increase at a rate proportional to the number present. An initial population of 200 triples in 10 hours. If this pattern of increase continues unabated, then the approximate number of bacteria after 1 full day is","[""1160"",""1440"",""2408"",""2793""]","B","C","modiste","","D","185","algLinUCB_0.9","diff-topics","high_school_mathematics","The following are multiple choice questions about high_school_mathematics.
Colton and his dad bought a gallon of paint that cost $13. They also bought 2 brushes that cost $9 each. What was the total cost, not including tax, of the brushes and the paint they bought?
(A) $22, (B) $24, (C) $31, (D) $35
Answer: C
Solve for y. y – 2 + 3y = 10
(A) 2, (B) 3, (C) 4, (D) 5
Answer: B
Solve 3 over 2 * w = 66.
(A) 33, (B) 44, (C) 88, (D) 99
Answer: B
Write 5.875 as a mixed number or fraction in simplest form.
(A) 5 and 8 over 9, (B) 5 and 7 over 8, (C) 7 over 8, (D) 5 and 87 over 105
Answer: B
Solve the equation 124 = m + 34.
(A) 158, (B) 90, (C) 88, (D) 4,216
Answer: B
Zelma buys p pounds of bananas for 40 cents per pound. She pays the clerk with a twenty-dollar bill. The clerk subtracts the total cost of the bananas from the twenty-dollar bill to determine the amount of change to give Zelma. Which expression represents the amount of change Zelma should receive?
(A) p - 20, (B) 20 - 40p, (C) 20 - 0.40p, (D) 0.40p - 20
Answer: C
Please answer the following question with just the correct option (A, B, C, or D) without any explanation or additional text.
Bacteria in a culture increase at a rate proportional to the number present. An initial population of 200 triples in 10 hours. If this pattern of increase continues unabated, then the approximate number of bacteria after 1 full day is
(A) '1160', (B) '1440', (C) '2408', (D) '2793'
Answer:","","","","","","","","","","true","2","","","","","","","","","","",""
"survey-html-form","15","672805","0.0-4.0-1.3","d2q0tt9d96u8bev","67658116d1ff218b001f2bf1","67b62c430b9240ccd8986e70","67b6351e973e24adf84ba721","3","113839.20000000298","","","{""mcAnswer"":""C""}","","","Bacteria in a culture increase at a rate proportional to the number present. An initial population of 200 triples in 10 hours. If this pattern of increase continues unabated, then the approximate number of bacteria after 1 full day is","[""1160"",""1440"",""2408"",""2793""]","B","C","modiste","","D","185","algLinUCB_0.9","diff-topics","high_school_mathematics","The following are multiple choice questions about high_school_mathematics.
Colton and his dad bought a gallon of paint that cost $13. They also bought 2 brushes that cost $9 each. What was the total cost, not including tax, of the brushes and the paint they bought?
(A) $22, (B) $24, (C) $31, (D) $35
Answer: C
Solve for y. y – 2 + 3y = 10
(A) 2, (B) 3, (C) 4, (D) 5
Answer: B
Solve 3 over 2 * w = 66.
(A) 33, (B) 44, (C) 88, (D) 99
Answer: B
Write 5.875 as a mixed number or fraction in simplest form.
(A) 5 and 8 over 9, (B) 5 and 7 over 8, (C) 7 over 8, (D) 5 and 87 over 105
Answer: B
Solve the equation 124 = m + 34.
(A) 158, (B) 90, (C) 88, (D) 4,216
Answer: B
Zelma buys p pounds of bananas for 40 cents per pound. She pays the clerk with a twenty-dollar bill. The clerk subtracts the total cost of the bananas from the twenty-dollar bill to determine the amount of change to give Zelma. Which expression represents the amount of change Zelma should receive?
(A) p - 20, (B) 20 - 40p, (C) 20 - 0.40p, (D) 0.40p - 20
Answer: C
Please answer the following question with just the correct option (A, B, C, or D) without any explanation or additional text.
Bacteria in a culture increase at a rate proportional to the number present. An initial population of 200 triples in 10 hours. If this pattern of increase continues unabated, then the approximate number of bacteria after 1 full day is
(A) '1160', (B) '1440', (C) '2408', (D) '2793'
Answer:","","","","","","","","","","","","","","","","","","","","","",""
"","","","","","","","","","","","","","","","","","","","","","","","","","","","C","","","","","","","","","","","","","","","","","","","","",""
"","","","","","","","","","","","","","","","","","","","","","","","","","","","","false","96","-1","B","false","false","defer","[]","true","2","false","0","{""elementary_mathematics"":[""40/50"",""31/50"",""4/6""],""high_school_mathematics"":[""28/52"",""22/50"",""3/6""],""college_mathematics"":[""22/50"",""26/50"",""2 / 5""]}","{""high_school_mathematics"":false,""elementary_mathematics"":true}","You should outsource this problem to a human agent","null","false","null","true","null",""
"image-keyboard-response","16","674316","0.0-4.0-2.3","d2q0tt9d96u8bev","67658116d1ff218b001f2bf1","67b62c430b9240ccd8986e70","67b6351e973e24adf84ba721","3","null","","","null","","","Bacteria in a culture increase at a rate proportional to the number present. An initial population of 200 triples in 10 hours. If this pattern of increase continues unabated, then the approximate number of bacteria after 1 full day is","[""1160"",""1440"",""2408"",""2793""]","B","C","modiste","","D","185","algLinUCB_0.9","diff-topics","high_school_mathematics","The following are multiple choice questions about high_school_mathematics.
Colton and his dad bought a gallon of paint that cost $13. They also bought 2 brushes that cost $9 each. What was the total cost, not including tax, of the brushes and the paint they bought?
(A) $22, (B) $24, (C) $31, (D) $35
Answer: C
Solve for y. y – 2 + 3y = 10
(A) 2, (B) 3, (C) 4, (D) 5
Answer: B
Solve 3 over 2 * w = 66.
(A) 33, (B) 44, (C) 88, (D) 99
Answer: B
Write 5.875 as a mixed number or fraction in simplest form.
(A) 5 and 8 over 9, (B) 5 and 7 over 8, (C) 7 over 8, (D) 5 and 87 over 105
Answer: B
Solve the equation 124 = m + 34.
(A) 158, (B) 90, (C) 88, (D) 4,216
Answer: B
Zelma buys p pounds of bananas for 40 cents per pound. She pays the clerk with a twenty-dollar bill. The clerk subtracts the total cost of the bananas from the twenty-dollar bill to determine the amount of change to give Zelma. Which expression represents the amount of change Zelma should receive?
(A) p - 20, (B) 20 - 40p, (C) 20 - 0.40p, (D) 0.40p - 20
Answer: C
Please answer the following question with just the correct option (A, B, C, or D) without any explanation or additional text.
Bacteria in a culture increase at a rate proportional to the number present. An initial population of 200 triples in 10 hours. If this pattern of increase continues unabated, then the approximate number of bacteria after 1 full day is
(A) '1160', (B) '1440', (C) '2408', (D) '2793'
Answer:","","","","","","","","","","","","","","","","","","","","","","feedback_imgs/Incorrect.png"
"call-function","17","674323","0.0-4.0-0.4","d2q0tt9d96u8bev","67658116d1ff218b001f2bf1","67b62c430b9240ccd8986e70","67b6351e973e24adf84ba721","3","","","","","","defer","If x and y are directly proportional and x = 3 when y = 8, what is the value of x when y = 13?","[""0.615"",""4.875"",""15"",""34.667""]","B","B","modiste","","B","186","algLinUCB_0.9","diff-topics","high_school_mathematics","The following are multiple choice questions about high_school_mathematics.
Colton and his dad bought a gallon of paint that cost $13. They also bought 2 brushes that cost $9 each. What was the total cost, not including tax, of the brushes and the paint they bought?
(A) $22, (B) $24, (C) $31, (D) $35
Answer: C
Solve for y. y – 2 + 3y = 10
(A) 2, (B) 3, (C) 4, (D) 5
Answer: B
Solve 3 over 2 * w = 66.
(A) 33, (B) 44, (C) 88, (D) 99
Answer: B
Write 5.875 as a mixed number or fraction in simplest form.
(A) 5 and 8 over 9, (B) 5 and 7 over 8, (C) 7 over 8, (D) 5 and 87 over 105
Answer: B
Solve the equation 124 = m + 34.
(A) 158, (B) 90, (C) 88, (D) 4,216
Answer: B
Zelma buys p pounds of bananas for 40 cents per pound. She pays the clerk with a twenty-dollar bill. The clerk subtracts the total cost of the bananas from the twenty-dollar bill to determine the amount of change to give Zelma. Which expression represents the amount of change Zelma should receive?
(A) p - 20, (B) 20 - 40p, (C) 20 - 0.40p, (D) 0.40p - 20
Answer: C
Please answer the following question with just the correct option (A, B, C, or D) without any explanation or additional text.
If x and y are directly proportional and x = 3 when y = 8, what is the value of x when y = 13?
(A) '0.615', (B) '4.875', (C) '15', (D) '34.667'
Answer:","","","","","","","","","","","","true","2","","","","","","","","",""
"survey-html-form","18","727981","0.0-4.0-1.4","d2q0tt9d96u8bev","67658116d1ff218b001f2bf1","67b62c430b9240ccd8986e70","67b6351e973e24adf84ba721","3","53635","","","{""mcAnswer"":""B""}","","","If x and y are directly proportional and x = 3 when y = 8, what is the value of x when y = 13?","[""0.615"",""4.875"",""15"",""34.667""]","B","B","modiste","","B","186","algLinUCB_0.9","diff-topics","high_school_mathematics","The following are multiple choice questions about high_school_mathematics.
Colton and his dad bought a gallon of paint that cost $13. They also bought 2 brushes that cost $9 each. What was the total cost, not including tax, of the brushes and the paint they bought?
(A) $22, (B) $24, (C) $31, (D) $35
Answer: C
Solve for y. y – 2 + 3y = 10
(A) 2, (B) 3, (C) 4, (D) 5
Answer: B
Solve 3 over 2 * w = 66.
(A) 33, (B) 44, (C) 88, (D) 99
Answer: B
Write 5.875 as a mixed number or fraction in simplest form.
(A) 5 and 8 over 9, (B) 5 and 7 over 8, (C) 7 over 8, (D) 5 and 87 over 105
Answer: B
Solve the equation 124 = m + 34.
(A) 158, (B) 90, (C) 88, (D) 4,216
Answer: B
Zelma buys p pounds of bananas for 40 cents per pound. She pays the clerk with a twenty-dollar bill. The clerk subtracts the total cost of the bananas from the twenty-dollar bill to determine the amount of change to give Zelma. Which expression represents the amount of change Zelma should receive?
(A) p - 20, (B) 20 - 40p, (C) 20 - 0.40p, (D) 0.40p - 20
Answer: C
Please answer the following question with just the correct option (A, B, C, or D) without any explanation or additional text.
If x and y are directly proportional and x = 3 when y = 8, what is the value of x when y = 13?
(A) '0.615', (B) '4.875', (C) '15', (D) '34.667'
Answer:","","","","","","","","","","","","","","","","","","","","","",""
"","","","","","","","","","","","","","","","","","","","","","","","","","","","B","","","","","","","","","","","","","","","","","","","","",""
"","","","","","","","","","","","","","","","","","","","","","","","","","","","","false","103","-1","B","true","true","defer","[]","false","0","true","2","{""elementary_mathematics"":[""40/50"",""31/50"",""4/6""],""high_school_mathematics"":[""28/52"",""23/51"",""3/6""],""college_mathematics"":[""22/50"",""26/50"",""2 / 5""]}","{""high_school_mathematics"":false,""elementary_mathematics"":true}","You should outsource this problem to a human agent","false","null","null","false","null",""
"image-keyboard-response","19","729491","0.0-4.0-2.4","d2q0tt9d96u8bev","67658116d1ff218b001f2bf1","67b62c430b9240ccd8986e70","67b6351e973e24adf84ba721","3","null","","","null","","","If x and y are directly proportional and x = 3 when y = 8, what is the value of x when y = 13?","[""0.615"",""4.875"",""15"",""34.667""]","B","B","modiste","","B","186","algLinUCB_0.9","diff-topics","high_school_mathematics","The following are multiple choice questions about high_school_mathematics.
Colton and his dad bought a gallon of paint that cost $13. They also bought 2 brushes that cost $9 each. What was the total cost, not including tax, of the brushes and the paint they bought?
(A) $22, (B) $24, (C) $31, (D) $35
Answer: C
Solve for y. y – 2 + 3y = 10
(A) 2, (B) 3, (C) 4, (D) 5
Answer: B
Solve 3 over 2 * w = 66.
(A) 33, (B) 44, (C) 88, (D) 99
Answer: B
Write 5.875 as a mixed number or fraction in simplest form.
(A) 5 and 8 over 9, (B) 5 and 7 over 8, (C) 7 over 8, (D) 5 and 87 over 105
Answer: B
Solve the equation 124 = m + 34.
(A) 158, (B) 90, (C) 88, (D) 4,216
Answer: B
Zelma buys p pounds of bananas for 40 cents per pound. She pays the clerk with a twenty-dollar bill. The clerk subtracts the total cost of the bananas from the twenty-dollar bill to determine the amount of change to give Zelma. Which expression represents the amount of change Zelma should receive?
(A) p - 20, (B) 20 - 40p, (C) 20 - 0.40p, (D) 0.40p - 20
Answer: C
Please answer the following question with just the correct option (A, B, C, or D) without any explanation or additional text.
If x and y are directly proportional and x = 3 when y = 8, what is the value of x when y = 13?
(A) '0.615', (B) '4.875', (C) '15', (D) '34.667'
Answer:","","","","","","","","","","","","","","","","","","","","","","feedback_imgs/Correct.png"
"call-function","20","729498","0.0-4.0-0.5","d2q0tt9d96u8bev","67658116d1ff218b001f2bf1","67b62c430b9240ccd8986e70","67b6351e973e24adf84ba721","3","","","","","","defer","The longest side of a triangle is 10. Which of the following could NOT be the lengths of the other two sides?","[""4, 7"",""5, 5"",""3, 9"",""9, 8""]","C","C","modiste","","B","182","algLinUCB_0.9","diff-topics","high_school_mathematics","The following are multiple choice questions about high_school_mathematics.
Colton and his dad bought a gallon of paint that cost $13. They also bought 2 brushes that cost $9 each. What was the total cost, not including tax, of the brushes and the paint they bought?
(A) $22, (B) $24, (C) $31, (D) $35
Answer: C
Solve for y. y – 2 + 3y = 10
(A) 2, (B) 3, (C) 4, (D) 5
Answer: B
Solve 3 over 2 * w = 66.
(A) 33, (B) 44, (C) 88, (D) 99
Answer: B
Write 5.875 as a mixed number or fraction in simplest form.
(A) 5 and 8 over 9, (B) 5 and 7 over 8, (C) 7 over 8, (D) 5 and 87 over 105
Answer: B
Solve the equation 124 = m + 34.
(A) 158, (B) 90, (C) 88, (D) 4,216
Answer: B
Zelma buys p pounds of bananas for 40 cents per pound. She pays the clerk with a twenty-dollar bill. The clerk subtracts the total cost of the bananas from the twenty-dollar bill to determine the amount of change to give Zelma. Which expression represents the amount of change Zelma should receive?
(A) p - 20, (B) 20 - 40p, (C) 20 - 0.40p, (D) 0.40p - 20
Answer: C
Please answer the following question with just the correct option (A, B, C, or D) without any explanation or additional text.
The longest side of a triangle is 10. Which of the following could NOT be the lengths of the other two sides?
(A) '4, 7', (B) '5, 5', (C) '3, 9', (D) '9, 8'
Answer:","","","","","","","","","","","","true","2","","","","","","","","",""
"survey-html-form","21","836971","0.0-4.0-1.5","d2q0tt9d96u8bev","67658116d1ff218b001f2bf1","67b62c430b9240ccd8986e70","67b6351e973e24adf84ba721","3","107453.60000000149","","","{""mcAnswer"":""C""}","","","The longest side of a triangle is 10. Which of the following could NOT be the lengths of the other two sides?","[""4, 7"",""5, 5"",""3, 9"",""9, 8""]","C","C","modiste","","B","182","algLinUCB_0.9","diff-topics","high_school_mathematics","The following are multiple choice questions about high_school_mathematics.
Colton and his dad bought a gallon of paint that cost $13. They also bought 2 brushes that cost $9 each. What was the total cost, not including tax, of the brushes and the paint they bought?
(A) $22, (B) $24, (C) $31, (D) $35
Answer: C
Solve for y. y – 2 + 3y = 10
(A) 2, (B) 3, (C) 4, (D) 5
Answer: B
Solve 3 over 2 * w = 66.
(A) 33, (B) 44, (C) 88, (D) 99
Answer: B
Write 5.875 as a mixed number or fraction in simplest form.
(A) 5 and 8 over 9, (B) 5 and 7 over 8, (C) 7 over 8, (D) 5 and 87 over 105
Answer: B
Solve the equation 124 = m + 34.
(A) 158, (B) 90, (C) 88, (D) 4,216
Answer: B
Zelma buys p pounds of bananas for 40 cents per pound. She pays the clerk with a twenty-dollar bill. The clerk subtracts the total cost of the bananas from the twenty-dollar bill to determine the amount of change to give Zelma. Which expression represents the amount of change Zelma should receive?
(A) p - 20, (B) 20 - 40p, (C) 20 - 0.40p, (D) 0.40p - 20
Answer: C
Please answer the following question with just the correct option (A, B, C, or D) without any explanation or additional text.
The longest side of a triangle is 10. Which of the following could NOT be the lengths of the other two sides?
(A) '4, 7', (B) '5, 5', (C) '3, 9', (D) '9, 8'
Answer:","","","","","","","","","","","","","","","","","","","","","",""
"","","","","","","","","","","","","","","","","","","","","","","","","","","","C","","","","","","","","","","","","","","","","","","","","",""
"","","","","","","","","","","","","","","","","","","","","","","","","","","","","false","100","-1","C","false","false","defer","[]","false","0","true","2","{""elementary_mathematics"":[""40/50"",""31/50"",""4/6""],""high_school_mathematics"":[""28/52"",""23/52"",""3/6""],""college_mathematics"":[""22/50"",""26/50"",""2 / 5""]}","{""high_school_mathematics"":false,""elementary_mathematics"":true}","You should outsource this problem to a human agent","false","null","null","false","null",""
"image-keyboard-response","22","838481","0.0-4.0-2.5","d2q0tt9d96u8bev","67658116d1ff218b001f2bf1","67b62c430b9240ccd8986e70","67b6351e973e24adf84ba721","3","null","","","null","","","The longest side of a triangle is 10. Which of the following could NOT be the lengths of the other two sides?","[""4, 7"",""5, 5"",""3, 9"",""9, 8""]","C","C","modiste","","B","182","algLinUCB_0.9","diff-topics","high_school_mathematics","The following are multiple choice questions about high_school_mathematics.
Colton and his dad bought a gallon of paint that cost $13. They also bought 2 brushes that cost $9 each. What was the total cost, not including tax, of the brushes and the paint they bought?
(A) $22, (B) $24, (C) $31, (D) $35
Answer: C
Solve for y. y – 2 + 3y = 10
(A) 2, (B) 3, (C) 4, (D) 5
Answer: B
Solve 3 over 2 * w = 66.
(A) 33, (B) 44, (C) 88, (D) 99
Answer: B
Write 5.875 as a mixed number or fraction in simplest form.
(A) 5 and 8 over 9, (B) 5 and 7 over 8, (C) 7 over 8, (D) 5 and 87 over 105
Answer: B
Solve the equation 124 = m + 34.
(A) 158, (B) 90, (C) 88, (D) 4,216
Answer: B
Zelma buys p pounds of bananas for 40 cents per pound. She pays the clerk with a twenty-dollar bill. The clerk subtracts the total cost of the bananas from the twenty-dollar bill to determine the amount of change to give Zelma. Which expression represents the amount of change Zelma should receive?
(A) p - 20, (B) 20 - 40p, (C) 20 - 0.40p, (D) 0.40p - 20
Answer: C
Please answer the following question with just the correct option (A, B, C, or D) without any explanation or additional text.
The longest side of a triangle is 10. Which of the following could NOT be the lengths of the other two sides?
(A) '4, 7', (B) '5, 5', (C) '3, 9', (D) '9, 8'
Answer:","","","","","","","","","","","","","","","","","","","","","","feedback_imgs/Incorrect.png"
"call-function","23","838484","0.0-4.0-0.6","d2q0tt9d96u8bev","67658116d1ff218b001f2bf1","67b62c430b9240ccd8986e70","67b6351e973e24adf84ba721","3","","","","","","defer","There are 230 calories in 4 ounces of a type of ice cream. How many calories are in 6 ounces of that ice cream?","[""232"",""236"",""345"",""460""]","D","C","modiste","","C","205","algLinUCB_0.9","diff-topics","elementary_mathematics","The following are multiple choice questions about high_school_mathematics.
Colton and his dad bought a gallon of paint that cost $13. They also bought 2 brushes that cost $9 each. What was the total cost, not including tax, of the brushes and the paint they bought?
(A) $22, (B) $24, (C) $31, (D) $35
Answer: C
Solve for y. y – 2 + 3y = 10
(A) 2, (B) 3, (C) 4, (D) 5
Answer: B
Solve 3 over 2 * w = 66.
(A) 33, (B) 44, (C) 88, (D) 99
Answer: B
Write 5.875 as a mixed number or fraction in simplest form.
(A) 5 and 8 over 9, (B) 5 and 7 over 8, (C) 7 over 8, (D) 5 and 87 over 105
Answer: B
Solve the equation 124 = m + 34.
(A) 158, (B) 90, (C) 88, (D) 4,216
Answer: B
Zelma buys p pounds of bananas for 40 cents per pound. She pays the clerk with a twenty-dollar bill. The clerk subtracts the total cost of the bananas from the twenty-dollar bill to determine the amount of change to give Zelma. Which expression represents the amount of change Zelma should receive?
(A) p - 20, (B) 20 - 40p, (C) 20 - 0.40p, (D) 0.40p - 20
Answer: C
Please answer the following question with just the correct option (A, B, C, or D) without any explanation or additional text.
There are 230 calories in 4 ounces of a type of ice cream. How many calories are in 6 ounces of that ice cream?
(A) '232', (B) '236', (C) '345', (D) '460'
Answer:","","","","","","","","","","true","2","","","","","","","","","","",""
"survey-html-form","24","934343","0.0-4.0-1.6","d2q0tt9d96u8bev","67658116d1ff218b001f2bf1","67b62c430b9240ccd8986e70","67b6351e973e24adf84ba721","3","95838.39999999851","","","{""mcAnswer"":""C""}","","","There are 230 calories in 4 ounces of a type of ice cream. How many calories are in 6 ounces of that ice cream?","[""232"",""236"",""345"",""460""]","D","C","modiste","","C","205","algLinUCB_0.9","diff-topics","elementary_mathematics","The following are multiple choice questions about high_school_mathematics.
Colton and his dad bought a gallon of paint that cost $13. They also bought 2 brushes that cost $9 each. What was the total cost, not including tax, of the brushes and the paint they bought?
(A) $22, (B) $24, (C) $31, (D) $35
Answer: C
Solve for y. y – 2 + 3y = 10
(A) 2, (B) 3, (C) 4, (D) 5
Answer: B
Solve 3 over 2 * w = 66.
(A) 33, (B) 44, (C) 88, (D) 99
Answer: B
Write 5.875 as a mixed number or fraction in simplest form.
(A) 5 and 8 over 9, (B) 5 and 7 over 8, (C) 7 over 8, (D) 5 and 87 over 105
Answer: B
Solve the equation 124 = m + 34.
(A) 158, (B) 90, (C) 88, (D) 4,216
Answer: B
Zelma buys p pounds of bananas for 40 cents per pound. She pays the clerk with a twenty-dollar bill. The clerk subtracts the total cost of the bananas from the twenty-dollar bill to determine the amount of change to give Zelma. Which expression represents the amount of change Zelma should receive?
(A) p - 20, (B) 20 - 40p, (C) 20 - 0.40p, (D) 0.40p - 20
Answer: C
Please answer the following question with just the correct option (A, B, C, or D) without any explanation or additional text.
There are 230 calories in 4 ounces of a type of ice cream. How many calories are in 6 ounces of that ice cream?
(A) '232', (B) '236', (C) '345', (D) '460'
Answer:","","","","","","","","","","","","","","","","","","","","","",""
"","","","","","","","","","","","","","","","","","","","","","","","","","","","C","","","","","","","","","","","","","","","","","","","","",""
"","","","","","","","","","","","","","","","","","","","","","","","","","","","","false","103","-1","D","true","false","defer","[]","true","2","false","0","{""elementary_mathematics"":[""41/51"",""31/50"",""4/6""],""high_school_mathematics"":[""28/52"",""23/52"",""3/6""],""college_mathematics"":[""22/50"",""26/50"",""2 / 5""]}","{""high_school_mathematics"":false,""elementary_mathematics"":false}","You were wrong by yourself on elementary_mathematics last time. You should outsource this problem to a human agent","null","false","null","true","null",""
"image-keyboard-response","25","935852","0.0-4.0-2.6","d2q0tt9d96u8bev","67658116d1ff218b001f2bf1","67b62c430b9240ccd8986e70","67b6351e973e24adf84ba721","3","null","","","null","","","There are 230 calories in 4 ounces of a type of ice cream. How many calories are in 6 ounces of that ice cream?","[""232"",""236"",""345"",""460""]","D","C","modiste","","C","205","algLinUCB_0.9","diff-topics","elementary_mathematics","The following are multiple choice questions about high_school_mathematics.
Colton and his dad bought a gallon of paint that cost $13. They also bought 2 brushes that cost $9 each. What was the total cost, not including tax, of the brushes and the paint they bought?
(A) $22, (B) $24, (C) $31, (D) $35
Answer: C
Solve for y. y – 2 + 3y = 10
(A) 2, (B) 3, (C) 4, (D) 5
Answer: B
Solve 3 over 2 * w = 66.
(A) 33, (B) 44, (C) 88, (D) 99
Answer: B
Write 5.875 as a mixed number or fraction in simplest form.
(A) 5 and 8 over 9, (B) 5 and 7 over 8, (C) 7 over 8, (D) 5 and 87 over 105
Answer: B
Solve the equation 124 = m + 34.
(A) 158, (B) 90, (C) 88, (D) 4,216
Answer: B
Zelma buys p pounds of bananas for 40 cents per pound. She pays the clerk with a twenty-dollar bill. The clerk subtracts the total cost of the bananas from the twenty-dollar bill to determine the amount of change to give Zelma. Which expression represents the amount of change Zelma should receive?
(A) p - 20, (B) 20 - 40p, (C) 20 - 0.40p, (D) 0.40p - 20
Answer: C
Please answer the following question with just the correct option (A, B, C, or D) without any explanation or additional text.
There are 230 calories in 4 ounces of a type of ice cream. How many calories are in 6 ounces of that ice cream?
(A) '232', (B) '236', (C) '345', (D) '460'
Answer:","","","","","","","","","","","","","","","","","","","","","","feedback_imgs/Correct.png"
"call-function","26","935857","0.0-4.0-0.7","d2q0tt9d96u8bev","67658116d1ff218b001f2bf1","67b62c430b9240ccd8986e70","67b6351e973e24adf84ba721","3","","","","","","defer","There are 31 days in the month of January. Michelle did 45 push-ups each day of the month. She used the expression below to find the number of push-ups she did in January. 31 × 45 How many push-ups did Michelle do in the month of January?","[""125 push-ups"",""279 push-ups"",""1,395 push-ups"",""1,406 push-ups""]","C","C","modiste","","C","202","algLinUCB_0.9","diff-topics","elementary_mathematics","The following are multiple choice questions about high_school_mathematics.
Colton and his dad bought a gallon of paint that cost $13. They also bought 2 brushes that cost $9 each. What was the total cost, not including tax, of the brushes and the paint they bought?
(A) $22, (B) $24, (C) $31, (D) $35
Answer: C
Solve for y. y – 2 + 3y = 10
(A) 2, (B) 3, (C) 4, (D) 5
Answer: B
Solve 3 over 2 * w = 66.
(A) 33, (B) 44, (C) 88, (D) 99
Answer: B
Write 5.875 as a mixed number or fraction in simplest form.
(A) 5 and 8 over 9, (B) 5 and 7 over 8, (C) 7 over 8, (D) 5 and 87 over 105
Answer: B
Solve the equation 124 = m + 34.
(A) 158, (B) 90, (C) 88, (D) 4,216
Answer: B
Zelma buys p pounds of bananas for 40 cents per pound. She pays the clerk with a twenty-dollar bill. The clerk subtracts the total cost of the bananas from the twenty-dollar bill to determine the amount of change to give Zelma. Which expression represents the amount of change Zelma should receive?
(A) p - 20, (B) 20 - 40p, (C) 20 - 0.40p, (D) 0.40p - 20
Answer: C
Please answer the following question with just the correct option (A, B, C, or D) without any explanation or additional text.
There are 31 days in the month of January. Michelle did 45 push-ups each day of the month. She used the expression below to find the number of push-ups she did in January. 31 × 45 How many push-ups did Michelle do in the month of January?
(A) '125 push-ups', (B) '279 push-ups', (C) '1,395 push-ups', (D) '1,406 push-ups'
Answer:","","","","","","","","","","","","","","","","","","","","","",""
"survey-html-form","27","998060","0.0-4.0-1.7","d2q0tt9d96u8bev","67658116d1ff218b001f2bf1","67b62c430b9240ccd8986e70","67b6351e973e24adf84ba721","3","62182.79999999702","","","{""mcAnswer"":""C""}","","","There are 31 days in the month of January. Michelle did 45 push-ups each day of the month. She used the expression below to find the number of push-ups she did in January. 31 × 45 How many push-ups did Michelle do in the month of January?","[""125 push-ups"",""279 push-ups"",""1,395 push-ups"",""1,406 push-ups""]","C","C","modiste","","C","202","algLinUCB_0.9","diff-topics","elementary_mathematics","The following are multiple choice questions about high_school_mathematics.
Colton and his dad bought a gallon of paint that cost $13. They also bought 2 brushes that cost $9 each. What was the total cost, not including tax, of the brushes and the paint they bought?
(A) $22, (B) $24, (C) $31, (D) $35
Answer: C
Solve for y. y – 2 + 3y = 10
(A) 2, (B) 3, (C) 4, (D) 5
Answer: B
Solve 3 over 2 * w = 66.
(A) 33, (B) 44, (C) 88, (D) 99
Answer: B
Write 5.875 as a mixed number or fraction in simplest form.
(A) 5 and 8 over 9, (B) 5 and 7 over 8, (C) 7 over 8, (D) 5 and 87 over 105
Answer: B
Solve the equation 124 = m + 34.
(A) 158, (B) 90, (C) 88, (D) 4,216
Answer: B
Zelma buys p pounds of bananas for 40 cents per pound. She pays the clerk with a twenty-dollar bill. The clerk subtracts the total cost of the bananas from the twenty-dollar bill to determine the amount of change to give Zelma. Which expression represents the amount of change Zelma should receive?
(A) p - 20, (B) 20 - 40p, (C) 20 - 0.40p, (D) 0.40p - 20
Answer: C
Please answer the following question with just the correct option (A, B, C, or D) without any explanation or additional text.
There are 31 days in the month of January. Michelle did 45 push-ups each day of the month. She used the expression below to find the number of push-ups she did in January. 31 × 45 How many push-ups did Michelle do in the month of January?
(A) '125 push-ups', (B) '279 push-ups', (C) '1,395 push-ups', (D) '1,406 push-ups'
Answer:","","","","","","","","","","","","","","","","","","","","","",""
"","","","","","","","","","","","","","","","","","","","","","","","","","","","C","","","","","","","","","","","","","","","","","","","","",""
"","","","","","","","","","","","","","","","","","","","","","","","","","","","","false","113","-1","C","true","true","defer","[]","false","0","false","0","{""elementary_mathematics"":[""41/51"",""31/50"",""5/7""],""high_school_mathematics"":[""28/52"",""23/52"",""3/6""],""college_mathematics"":[""22/50"",""26/50"",""2 / 5""]}","{""high_school_mathematics"":false,""elementary_mathematics"":false}","You should outsource this problem to a human agent","null","null","null","false","null",""
"image-keyboard-response","28","999571","0.0-4.0-2.7","d2q0tt9d96u8bev","67658116d1ff218b001f2bf1","67b62c430b9240ccd8986e70","67b6351e973e24adf84ba721","3","null","","","null","","","There are 31 days in the month of January. Michelle did 45 push-ups each day of the month. She used the expression below to find the number of push-ups she did in January. 31 × 45 How many push-ups did Michelle do in the month of January?","[""125 push-ups"",""279 push-ups"",""1,395 push-ups"",""1,406 push-ups""]","C","C","modiste","","C","202","algLinUCB_0.9","diff-topics","elementary_mathematics","The following are multiple choice questions about high_school_mathematics.
Colton and his dad bought a gallon of paint that cost $13. They also bought 2 brushes that cost $9 each. What was the total cost, not including tax, of the brushes and the paint they bought?
(A) $22, (B) $24, (C) $31, (D) $35
Answer: C
Solve for y. y – 2 + 3y = 10
(A) 2, (B) 3, (C) 4, (D) 5
Answer: B
Solve 3 over 2 * w = 66.
(A) 33, (B) 44, (C) 88, (D) 99
Answer: B
Write 5.875 as a mixed number or fraction in simplest form.
(A) 5 and 8 over 9, (B) 5 and 7 over 8, (C) 7 over 8, (D) 5 and 87 over 105
Answer: B
Solve the equation 124 = m + 34.
(A) 158, (B) 90, (C) 88, (D) 4,216
Answer: B
Zelma buys p pounds of bananas for 40 cents per pound. She pays the clerk with a twenty-dollar bill. The clerk subtracts the total cost of the bananas from the twenty-dollar bill to determine the amount of change to give Zelma. Which expression represents the amount of change Zelma should receive?
(A) p - 20, (B) 20 - 40p, (C) 20 - 0.40p, (D) 0.40p - 20
Answer: C
Please answer the following question with just the correct option (A, B, C, or D) without any explanation or additional text.
There are 31 days in the month of January. Michelle did 45 push-ups each day of the month. She used the expression below to find the number of push-ups she did in January. 31 × 45 How many push-ups did Michelle do in the month of January?
(A) '125 push-ups', (B) '279 push-ups', (C) '1,395 push-ups', (D) '1,406 push-ups'
Answer:","","","","","","","","","","","","","","","","","","","","","","feedback_imgs/Correct.png"
"call-function","29","999575","0.0-4.0-0.8","d2q0tt9d96u8bev","67658116d1ff218b001f2bf1","67b62c430b9240ccd8986e70","67b6351e973e24adf84ba721","3","","","","","","defer","Manuel bought a used car for six thousand forty-nine dollars. What is the cost of the used car Manuel bought written as a numeral?","[""649"",""6,049"",""6,409"",""6,490""]","B","B","modiste","","B","214","algLinUCB_0.9","diff-topics","elementary_mathematics","The following are multiple choice questions about high_school_mathematics.
Colton and his dad bought a gallon of paint that cost $13. They also bought 2 brushes that cost $9 each. What was the total cost, not including tax, of the brushes and the paint they bought?
(A) $22, (B) $24, (C) $31, (D) $35
Answer: C
Solve for y. y – 2 + 3y = 10
(A) 2, (B) 3, (C) 4, (D) 5
Answer: B
Solve 3 over 2 * w = 66.
(A) 33, (B) 44, (C) 88, (D) 99
Answer: B
Write 5.875 as a mixed number or fraction in simplest form.
(A) 5 and 8 over 9, (B) 5 and 7 over 8, (C) 7 over 8, (D) 5 and 87 over 105
Answer: B
Solve the equation 124 = m + 34.
(A) 158, (B) 90, (C) 88, (D) 4,216
Answer: B
Zelma buys p pounds of bananas for 40 cents per pound. She pays the clerk with a twenty-dollar bill. The clerk subtracts the total cost of the bananas from the twenty-dollar bill to determine the amount of change to give Zelma. Which expression represents the amount of change Zelma should receive?
(A) p - 20, (B) 20 - 40p, (C) 20 - 0.40p, (D) 0.40p - 20
Answer: C
Please answer the following question with just the correct option (A, B, C, or D) without any explanation or additional text.
Manuel bought a used car for six thousand forty-nine dollars. What is the cost of the used car Manuel bought written as a numeral?
(A) '649 ', (B) '6,049 ', (C) '6,409 ', (D) '6,490 '
Answer:","","","","","","","","","","","","","","","","","","","","","",""
"survey-html-form","30","1036216","0.0-4.0-1.8","d2q0tt9d96u8bev","67658116d1ff218b001f2bf1","67b62c430b9240ccd8986e70","67b6351e973e24adf84ba721","3","36625.39999999851","","","{""mcAnswer"":""B""}","","","Manuel bought a used car for six thousand forty-nine dollars. What is the cost of the used car Manuel bought written as a numeral?","[""649"",""6,049"",""6,409"",""6,490""]","B","B","modiste","","B","214","algLinUCB_0.9","diff-topics","elementary_mathematics","The following are multiple choice questions about high_school_mathematics.
Colton and his dad bought a gallon of paint that cost $13. They also bought 2 brushes that cost $9 each. What was the total cost, not including tax, of the brushes and the paint they bought?
(A) $22, (B) $24, (C) $31, (D) $35
Answer: C
Solve for y. y – 2 + 3y = 10
(A) 2, (B) 3, (C) 4, (D) 5
Answer: B
Solve 3 over 2 * w = 66.
(A) 33, (B) 44, (C) 88, (D) 99
Answer: B
Write 5.875 as a mixed number or fraction in simplest form.
(A) 5 and 8 over 9, (B) 5 and 7 over 8, (C) 7 over 8, (D) 5 and 87 over 105
Answer: B
Solve the equation 124 = m + 34.
(A) 158, (B) 90, (C) 88, (D) 4,216
Answer: B
Zelma buys p pounds of bananas for 40 cents per pound. She pays the clerk with a twenty-dollar bill. The clerk subtracts the total cost of the bananas from the twenty-dollar bill to determine the amount of change to give Zelma. Which expression represents the amount of change Zelma should receive?
(A) p - 20, (B) 20 - 40p, (C) 20 - 0.40p, (D) 0.40p - 20
Answer: C
Please answer the following question with just the correct option (A, B, C, or D) without any explanation or additional text.
Manuel bought a used car for six thousand forty-nine dollars. What is the cost of the used car Manuel bought written as a numeral?
(A) '649 ', (B) '6,049 ', (C) '6,409 ', (D) '6,490 '
Answer:","","","","","","","","","","","","","","","","","","","","","",""
"","","","","","","","","","","","","","","","","","","","","","","","","","","","B","","","","","","","","","","","","","","","","","","","","",""
"","","","","","","","","","","","","","","","","","","","","","","","","","","","","false","123","-1","B","true","true","defer","[]","false","0","false","0","{""elementary_mathematics"":[""41/51"",""31/50"",""6/8""],""high_school_mathematics"":[""28/52"",""23/52"",""3/6""],""college_mathematics"":[""22/50"",""26/50"",""2 / 5""]}","{""high_school_mathematics"":false,""elementary_mathematics"":false}","You should outsource this problem to a human agent","null","null","null","false","null",""
"image-keyboard-response","31","1037727","0.0-4.0-2.8","d2q0tt9d96u8bev","67658116d1ff218b001f2bf1","67b62c430b9240ccd8986e70","67b6351e973e24adf84ba721","3","null","","","null","","","Manuel bought a used car for six thousand forty-nine dollars. What is the cost of the used car Manuel bought written as a numeral?","[""649"",""6,049"",""6,409"",""6,490""]","B","B","modiste","","B","214","algLinUCB_0.9","diff-topics","elementary_mathematics","The following are multiple choice questions about high_school_mathematics.
Colton and his dad bought a gallon of paint that cost $13. They also bought 2 brushes that cost $9 each. What was the total cost, not including tax, of the brushes and the paint they bought?
(A) $22, (B) $24, (C) $31, (D) $35
Answer: C
Solve for y. y – 2 + 3y = 10
(A) 2, (B) 3, (C) 4, (D) 5
Answer: B
Solve 3 over 2 * w = 66.
(A) 33, (B) 44, (C) 88, (D) 99
Answer: B
Write 5.875 as a mixed number or fraction in simplest form.
(A) 5 and 8 over 9, (B) 5 and 7 over 8, (C) 7 over 8, (D) 5 and 87 over 105
Answer: B
Solve the equation 124 = m + 34.
(A) 158, (B) 90, (C) 88, (D) 4,216
Answer: B
Zelma buys p pounds of bananas for 40 cents per pound. She pays the clerk with a twenty-dollar bill. The clerk subtracts the total cost of the bananas from the twenty-dollar bill to determine the amount of change to give Zelma. Which expression represents the amount of change Zelma should receive?
(A) p - 20, (B) 20 - 40p, (C) 20 - 0.40p, (D) 0.40p - 20
Answer: C
Please answer the following question with just the correct option (A, B, C, or D) without any explanation or additional text.
Manuel bought a used car for six thousand forty-nine dollars. What is the cost of the used car Manuel bought written as a numeral?
(A) '649 ', (B) '6,049 ', (C) '6,409 ', (D) '6,490 '
Answer:","","","","","","","","","","","","","","","","","","","","","","feedback_imgs/Correct.png"
"call-function","32","1037731","0.0-4.0-0.9","d2q0tt9d96u8bev","67658116d1ff218b001f2bf1","67b62c430b9240ccd8986e70","67b6351e973e24adf84ba721","3","","","","","","defer","Solve for the sum of all possible values of x when 3^{x^2+4x+4}=9^{x+2}.","[""1"",""2"",""-2"",""0""]","C","C","modiste","","C","184","algLinUCB_0.9","diff-topics","high_school_mathematics","The following are multiple choice questions about high_school_mathematics.
Colton and his dad bought a gallon of paint that cost $13. They also bought 2 brushes that cost $9 each. What was the total cost, not including tax, of the brushes and the paint they bought?
(A) $22, (B) $24, (C) $31, (D) $35
Answer: C
Solve for y. y – 2 + 3y = 10
(A) 2, (B) 3, (C) 4, (D) 5
Answer: B
Solve 3 over 2 * w = 66.
(A) 33, (B) 44, (C) 88, (D) 99
Answer: B
Write 5.875 as a mixed number or fraction in simplest form.
(A) 5 and 8 over 9, (B) 5 and 7 over 8, (C) 7 over 8, (D) 5 and 87 over 105
Answer: B
Solve the equation 124 = m + 34.
(A) 158, (B) 90, (C) 88, (D) 4,216
Answer: B
Zelma buys p pounds of bananas for 40 cents per pound. She pays the clerk with a twenty-dollar bill. The clerk subtracts the total cost of the bananas from the twenty-dollar bill to determine the amount of change to give Zelma. Which expression represents the amount of change Zelma should receive?
(A) p - 20, (B) 20 - 40p, (C) 20 - 0.40p, (D) 0.40p - 20
Answer: C
Please answer the following question with just the correct option (A, B, C, or D) without any explanation or additional text.
Solve for the sum of all possible values of x when 3^{x^2+4x+4}=9^{x+2}.
(A) '1', (B) '2', (C) '-2', (D) '0'
Answer:","","","","","","","","","","true","2","","","","","","","","","","",""
"survey-html-form","33","1068923","0.0-4.0-1.9","d2q0tt9d96u8bev","67658116d1ff218b001f2bf1","67b62c430b9240ccd8986e70","67b6351e973e24adf84ba721","3","31171.39999999851","","","{""mcAnswer"":""C""}","","","Solve for the sum of all possible values of x when 3^{x^2+4x+4}=9^{x+2}.","[""1"",""2"",""-2"",""0""]","C","C","modiste","","C","184","algLinUCB_0.9","diff-topics","high_school_mathematics","The following are multiple choice questions about high_school_mathematics.
Colton and his dad bought a gallon of paint that cost $13. They also bought 2 brushes that cost $9 each. What was the total cost, not including tax, of the brushes and the paint they bought?
(A) $22, (B) $24, (C) $31, (D) $35
Answer: C
Solve for y. y – 2 + 3y = 10
(A) 2, (B) 3, (C) 4, (D) 5
Answer: B
Solve 3 over 2 * w = 66.
(A) 33, (B) 44, (C) 88, (D) 99
Answer: B
Write 5.875 as a mixed number or fraction in simplest form.
(A) 5 and 8 over 9, (B) 5 and 7 over 8, (C) 7 over 8, (D) 5 and 87 over 105
Answer: B
Solve the equation 124 = m + 34.
(A) 158, (B) 90, (C) 88, (D) 4,216
Answer: B
Zelma buys p pounds of bananas for 40 cents per pound. She pays the clerk with a twenty-dollar bill. The clerk subtracts the total cost of the bananas from the twenty-dollar bill to determine the amount of change to give Zelma. Which expression represents the amount of change Zelma should receive?
(A) p - 20, (B) 20 - 40p, (C) 20 - 0.40p, (D) 0.40p - 20
Answer: C
Please answer the following question with just the correct option (A, B, C, or D) without any explanation or additional text.
Solve for the sum of all possible values of x when 3^{x^2+4x+4}=9^{x+2}.
(A) '1', (B) '2', (C) '-2', (D) '0'
Answer:","","","","","","","","","","","","","","","","","","","","","",""
"","","","","","","","","","","","","","","","","","","","","","","","","","","","C","","","","","","","","","","","","","","","","","","","","",""
"","","","","","","","","","","","","","","","","","","","","","","","","","","","","false","126","-1","C","true","true","defer","[]","true","2","false","0","{""elementary_mathematics"":[""41/51"",""31/50"",""6/8""],""high_school_mathematics"":[""29/53"",""23/52"",""3/6""],""college_mathematics"":[""22/50"",""26/50"",""2 / 5""]}","{""high_school_mathematics"":false,""elementary_mathematics"":false}","You should outsource this problem to a human agent","null","false","null","true","null",""
"image-keyboard-response","34","1070433","0.0-4.0-2.9","d2q0tt9d96u8bev","67658116d1ff218b001f2bf1","67b62c430b9240ccd8986e70","67b6351e973e24adf84ba721","3","null","","","null","","","Solve for the sum of all possible values of x when 3^{x^2+4x+4}=9^{x+2}.","[""1"",""2"",""-2"",""0""]","C","C","modiste","","C","184","algLinUCB_0.9","diff-topics","high_school_mathematics","The following are multiple choice questions about high_school_mathematics.
Colton and his dad bought a gallon of paint that cost $13. They also bought 2 brushes that cost $9 each. What was the total cost, not including tax, of the brushes and the paint they bought?
(A) $22, (B) $24, (C) $31, (D) $35
Answer: C
Solve for y. y – 2 + 3y = 10
(A) 2, (B) 3, (C) 4, (D) 5
Answer: B
Solve 3 over 2 * w = 66.
(A) 33, (B) 44, (C) 88, (D) 99
Answer: B
Write 5.875 as a mixed number or fraction in simplest form.
(A) 5 and 8 over 9, (B) 5 and 7 over 8, (C) 7 over 8, (D) 5 and 87 over 105
Answer: B
Solve the equation 124 = m + 34.
(A) 158, (B) 90, (C) 88, (D) 4,216
Answer: B
Zelma buys p pounds of bananas for 40 cents per pound. She pays the clerk with a twenty-dollar bill. The clerk subtracts the total cost of the bananas from the twenty-dollar bill to determine the amount of change to give Zelma. Which expression represents the amount of change Zelma should receive?
(A) p - 20, (B) 20 - 40p, (C) 20 - 0.40p, (D) 0.40p - 20
Answer: C
Please answer the following question with just the correct option (A, B, C, or D) without any explanation or additional text.
Solve for the sum of all possible values of x when 3^{x^2+4x+4}=9^{x+2}.
(A) '1', (B) '2', (C) '-2', (D) '0'
Answer:","","","","","","","","","","","","","","","","","","","","","","feedback_imgs/Correct.png"
"call-function","35","1070439","0.0-4.0-0.10","d2q0tt9d96u8bev","67658116d1ff218b001f2bf1","67b62c430b9240ccd8986e70","67b6351e973e24adf84ba721","3","","","","","","defer","Let y = f(x) be a solution of the differential equation x dy + (y - xe^x) dx = 0 such that y = 0 when x = 1. What is the value of f(2)?","[""1/(2e)"",""1/e"",""e^2/2"",""2e""]","A","B","modiste","","C","234","algLinUCB_0.9","diff-topics","college_mathematics","The following are multiple choice questions about high_school_mathematics.
Colton and his dad bought a gallon of paint that cost $13. They also bought 2 brushes that cost $9 each. What was the total cost, not including tax, of the brushes and the paint they bought?
(A) $22, (B) $24, (C) $31, (D) $35
Answer: C
Solve for y. y – 2 + 3y = 10
(A) 2, (B) 3, (C) 4, (D) 5
Answer: B
Solve 3 over 2 * w = 66.
(A) 33, (B) 44, (C) 88, (D) 99
Answer: B
Write 5.875 as a mixed number or fraction in simplest form.
(A) 5 and 8 over 9, (B) 5 and 7 over 8, (C) 7 over 8, (D) 5 and 87 over 105
Answer: B
Solve the equation 124 = m + 34.
(A) 158, (B) 90, (C) 88, (D) 4,216
Answer: B
Zelma buys p pounds of bananas for 40 cents per pound. She pays the clerk with a twenty-dollar bill. The clerk subtracts the total cost of the bananas from the twenty-dollar bill to determine the amount of change to give Zelma. Which expression represents the amount of change Zelma should receive?
(A) p - 20, (B) 20 - 40p, (C) 20 - 0.40p, (D) 0.40p - 20
Answer: C
Please answer the following question with just the correct option (A, B, C, or D) without any explanation or additional text.
Let y = f(x) be a solution of the differential equation x dy + (y - xe^x) dx = 0 such that y = 0 when x = 1. What is the value of f(2)?
(A) '1/(2e)', (B) '1/e', (C) 'e^2/2', (D) '2e'
Answer:","","","","","","","","","","","","true","2","","","","","","","","",""
"survey-html-form","36","1102728","0.0-4.0-1.10","d2q0tt9d96u8bev","67658116d1ff218b001f2bf1","67b62c430b9240ccd8986e70","67b6351e973e24adf84ba721","3","32271.59999999404","","","{""mcAnswer"":""A""}","","","Let y = f(x) be a solution of the differential equation x dy + (y - xe^x) dx = 0 such that y = 0 when x = 1. What is the value of f(2)?","[""1/(2e)"",""1/e"",""e^2/2"",""2e""]","A","B","modiste","","C","234","algLinUCB_0.9","diff-topics","college_mathematics","The following are multiple choice questions about high_school_mathematics.
Colton and his dad bought a gallon of paint that cost $13. They also bought 2 brushes that cost $9 each. What was the total cost, not including tax, of the brushes and the paint they bought?
(A) $22, (B) $24, (C) $31, (D) $35
Answer: C
Solve for y. y – 2 + 3y = 10
(A) 2, (B) 3, (C) 4, (D) 5
Answer: B
Solve 3 over 2 * w = 66.
(A) 33, (B) 44, (C) 88, (D) 99
Answer: B
Write 5.875 as a mixed number or fraction in simplest form.
(A) 5 and 8 over 9, (B) 5 and 7 over 8, (C) 7 over 8, (D) 5 and 87 over 105
Answer: B
Solve the equation 124 = m + 34.
(A) 158, (B) 90, (C) 88, (D) 4,216
Answer: B
Zelma buys p pounds of bananas for 40 cents per pound. She pays the clerk with a twenty-dollar bill. The clerk subtracts the total cost of the bananas from the twenty-dollar bill to determine the amount of change to give Zelma. Which expression represents the amount of change Zelma should receive?
(A) p - 20, (B) 20 - 40p, (C) 20 - 0.40p, (D) 0.40p - 20
Answer: C
Please answer the following question with just the correct option (A, B, C, or D) without any explanation or additional text.
Let y = f(x) be a solution of the differential equation x dy + (y - xe^x) dx = 0 such that y = 0 when x = 1. What is the value of f(2)?
(A) '1/(2e)', (B) '1/e', (C) 'e^2/2', (D) '2e'
Answer:","","","","","","","","","","","","","","","","","","","","","",""
"","","","","","","","","","","","","","","","","","","","","","","","","","","","A","","","","","","","","","","","","","","","","","","","","",""
"","","","","","","","","","","","","","","","","","","","","","","","","","","","","false","123","-1","A","false","false","defer","[]","false","0","true","2","{""elementary_mathematics"":[""41/51"",""31/50"",""6/8""],""high_school_mathematics"":[""29/53"",""23/52"",""3/6""],""college_mathematics"":[""22/50"",""26/51"",""2 / 5""]}","{""high_school_mathematics"":false,""elementary_mathematics"":false,""college_mathematics"":false}","You should outsource this problem to the AI agent","false","null","true","null","null",""
"image-keyboard-response","37","1104236","0.0-4.0-2.10","d2q0tt9d96u8bev","67658116d1ff218b001f2bf1","67b62c430b9240ccd8986e70","67b6351e973e24adf84ba721","3","null","","","null","","","Let y = f(x) be a solution of the differential equation x dy + (y - xe^x) dx = 0 such that y = 0 when x = 1. What is the value of f(2)?","[""1/(2e)"",""1/e"",""e^2/2"",""2e""]","A","B","modiste","","C","234","algLinUCB_0.9","diff-topics","college_mathematics","The following are multiple choice questions about high_school_mathematics.
Colton and his dad bought a gallon of paint that cost $13. They also bought 2 brushes that cost $9 each. What was the total cost, not including tax, of the brushes and the paint they bought?
(A) $22, (B) $24, (C) $31, (D) $35
Answer: C
Solve for y. y – 2 + 3y = 10
(A) 2, (B) 3, (C) 4, (D) 5
Answer: B
Solve 3 over 2 * w = 66.
(A) 33, (B) 44, (C) 88, (D) 99
Answer: B
Write 5.875 as a mixed number or fraction in simplest form.
(A) 5 and 8 over 9, (B) 5 and 7 over 8, (C) 7 over 8, (D) 5 and 87 over 105
Answer: B
Solve the equation 124 = m + 34.
(A) 158, (B) 90, (C) 88, (D) 4,216
Answer: B
Zelma buys p pounds of bananas for 40 cents per pound. She pays the clerk with a twenty-dollar bill. The clerk subtracts the total cost of the bananas from the twenty-dollar bill to determine the amount of change to give Zelma. Which expression represents the amount of change Zelma should receive?
(A) p - 20, (B) 20 - 40p, (C) 20 - 0.40p, (D) 0.40p - 20
Answer: C
Please answer the following question with just the correct option (A, B, C, or D) without any explanation or additional text.
Let y = f(x) be a solution of the differential equation x dy + (y - xe^x) dx = 0 such that y = 0 when x = 1. What is the value of f(2)?
(A) '1/(2e)', (B) '1/e', (C) 'e^2/2', (D) '2e'
Answer:","","","","","","","","","","","","","","","","","","","","","","feedback_imgs/Incorrect.png"
"call-function","38","1104241","0.0-4.0-0.11","d2q0tt9d96u8bev","67658116d1ff218b001f2bf1","67b62c430b9240ccd8986e70","67b6351e973e24adf84ba721","3","","","","","","defer","If (2x + 3y)^2 = 4 and xy = -5, what is the value of 4x^2 + 9y^2?","[""-5"",""13"",""64"",""25""]","C","C","modiste","","C","198","algLinUCB_0.9","diff-topics","high_school_mathematics","The following are multiple choice questions about high_school_mathematics.
Colton and his dad bought a gallon of paint that cost $13. They also bought 2 brushes that cost $9 each. What was the total cost, not including tax, of the brushes and the paint they bought?
(A) $22, (B) $24, (C) $31, (D) $35
Answer: C
Solve for y. y – 2 + 3y = 10
(A) 2, (B) 3, (C) 4, (D) 5
Answer: B
Solve 3 over 2 * w = 66.
(A) 33, (B) 44, (C) 88, (D) 99
Answer: B
Write 5.875 as a mixed number or fraction in simplest form.
(A) 5 and 8 over 9, (B) 5 and 7 over 8, (C) 7 over 8, (D) 5 and 87 over 105
Answer: B
Solve the equation 124 = m + 34.
(A) 158, (B) 90, (C) 88, (D) 4,216
Answer: B
Zelma buys p pounds of bananas for 40 cents per pound. She pays the clerk with a twenty-dollar bill. The clerk subtracts the total cost of the bananas from the twenty-dollar bill to determine the amount of change to give Zelma. Which expression represents the amount of change Zelma should receive?
(A) p - 20, (B) 20 - 40p, (C) 20 - 0.40p, (D) 0.40p - 20
Answer: C
Please answer the following question with just the correct option (A, B, C, or D) without any explanation or additional text.
If (2x + 3y)^2 = 4 and xy = -5, what is the value of 4x^2 + 9y^2?
(A) '-5', (B) '13', (C) '64', (D) '25'
Answer:","","","","","","","","","","true","2","","","","","","","","","","",""
"survey-html-form","39","1185941","0.0-4.0-1.11","d2q0tt9d96u8bev","67658116d1ff218b001f2bf1","67b62c430b9240ccd8986e70","67b6351e973e24adf84ba721","3","81680.89999999851","","","{""mcAnswer"":""C""}","","","If (2x + 3y)^2 = 4 and xy = -5, what is the value of 4x^2 + 9y^2?","[""-5"",""13"",""64"",""25""]","C","C","modiste","","C","198","algLinUCB_0.9","diff-topics","high_school_mathematics","The following are multiple choice questions about high_school_mathematics.
Colton and his dad bought a gallon of paint that cost $13. They also bought 2 brushes that cost $9 each. What was the total cost, not including tax, of the brushes and the paint they bought?
(A) $22, (B) $24, (C) $31, (D) $35
Answer: C
Solve for y. y – 2 + 3y = 10
(A) 2, (B) 3, (C) 4, (D) 5
Answer: B
Solve 3 over 2 * w = 66.
(A) 33, (B) 44, (C) 88, (D) 99
Answer: B
Write 5.875 as a mixed number or fraction in simplest form.
(A) 5 and 8 over 9, (B) 5 and 7 over 8, (C) 7 over 8, (D) 5 and 87 over 105
Answer: B
Solve the equation 124 = m + 34.
(A) 158, (B) 90, (C) 88, (D) 4,216
Answer: B
Zelma buys p pounds of bananas for 40 cents per pound. She pays the clerk with a twenty-dollar bill. The clerk subtracts the total cost of the bananas from the twenty-dollar bill to determine the amount of change to give Zelma. Which expression represents the amount of change Zelma should receive?
(A) p - 20, (B) 20 - 40p, (C) 20 - 0.40p, (D) 0.40p - 20
Answer: C
Please answer the following question with just the correct option (A, B, C, or D) without any explanation or additional text.
If (2x + 3y)^2 = 4 and xy = -5, what is the value of 4x^2 + 9y^2?
(A) '-5', (B) '13', (C) '64', (D) '25'
Answer:","","","","","","","","","","","","","","","","","","","","","",""
"","","","","","","","","","","","","","","","","","","","","","","","","","","","C","","","","","","","","","","","","","","","","","","","","",""
"","","","","","","","","","","","","","","","","","","","","","","","","","","","","false","126","-1","C","true","true","defer","[]","true","2","false","0","{""elementary_mathematics"":[""41/51"",""31/50"",""6/8""],""high_school_mathematics"":[""30/54"",""23/52"",""3/6""],""college_mathematics"":[""22/50"",""26/51"",""2 / 5""]}","{""high_school_mathematics"":false,""elementary_mathematics"":false,""college_mathematics"":false}","You should outsource this problem to a human agent","null","false","null","true","null",""
"image-keyboard-response","40","1187450","0.0-4.0-2.11","d2q0tt9d96u8bev","67658116d1ff218b001f2bf1","67b62c430b9240ccd8986e70","67b6351e973e24adf84ba721","3","null","","","null","","","If (2x + 3y)^2 = 4 and xy = -5, what is the value of 4x^2 + 9y^2?","[""-5"",""13"",""64"",""25""]","C","C","modiste","","C","198","algLinUCB_0.9","diff-topics","high_school_mathematics","The following are multiple choice questions about high_school_mathematics.
Colton and his dad bought a gallon of paint that cost $13. They also bought 2 brushes that cost $9 each. What was the total cost, not including tax, of the brushes and the paint they bought?
(A) $22, (B) $24, (C) $31, (D) $35
Answer: C
Solve for y. y – 2 + 3y = 10
(A) 2, (B) 3, (C) 4, (D) 5
Answer: B
Solve 3 over 2 * w = 66.
(A) 33, (B) 44, (C) 88, (D) 99
Answer: B
Write 5.875 as a mixed number or fraction in simplest form.
(A) 5 and 8 over 9, (B) 5 and 7 over 8, (C) 7 over 8, (D) 5 and 87 over 105
Answer: B
Solve the equation 124 = m + 34.
(A) 158, (B) 90, (C) 88, (D) 4,216
Answer: B
Zelma buys p pounds of bananas for 40 cents per pound. She pays the clerk with a twenty-dollar bill. The clerk subtracts the total cost of the bananas from the twenty-dollar bill to determine the amount of change to give Zelma. Which expression represents the amount of change Zelma should receive?
(A) p - 20, (B) 20 - 40p, (C) 20 - 0.40p, (D) 0.40p - 20
Answer: C
Please answer the following question with just the correct option (A, B, C, or D) without any explanation or additional text.
If (2x + 3y)^2 = 4 and xy = -5, what is the value of 4x^2 + 9y^2?
(A) '-5', (B) '13', (C) '64', (D) '25'
Answer:","","","","","","","","","","","","","","","","","","","","","","feedback_imgs/Correct.png"
"call-function","41","1187454","0.0-4.0-0.12","d2q0tt9d96u8bev","67658116d1ff218b001f2bf1","67b62c430b9240ccd8986e70","67b6351e973e24adf84ba721","3","","","","","","defer","Let I != A != -I, where I is the identity matrix and A is a real 2 x 2 matrix. If A = A^(-1), then the trace of A is","[""2"",""1"",""0"",""-1""]","B","C","modiste","","C","237","algLinUCB_0.9","diff-topics","college_mathematics","The following are multiple choice questions about high_school_mathematics.
Colton and his dad bought a gallon of paint that cost $13. They also bought 2 brushes that cost $9 each. What was the total cost, not including tax, of the brushes and the paint they bought?
(A) $22, (B) $24, (C) $31, (D) $35
Answer: C
Solve for y. y – 2 + 3y = 10
(A) 2, (B) 3, (C) 4, (D) 5
Answer: B
Solve 3 over 2 * w = 66.
(A) 33, (B) 44, (C) 88, (D) 99
Answer: B
Write 5.875 as a mixed number or fraction in simplest form.
(A) 5 and 8 over 9, (B) 5 and 7 over 8, (C) 7 over 8, (D) 5 and 87 over 105
Answer: B
Solve the equation 124 = m + 34.
(A) 158, (B) 90, (C) 88, (D) 4,216
Answer: B
Zelma buys p pounds of bananas for 40 cents per pound. She pays the clerk with a twenty-dollar bill. The clerk subtracts the total cost of the bananas from the twenty-dollar bill to determine the amount of change to give Zelma. Which expression represents the amount of change Zelma should receive?
(A) p - 20, (B) 20 - 40p, (C) 20 - 0.40p, (D) 0.40p - 20
Answer: C
Please answer the following question with just the correct option (A, B, C, or D) without any explanation or additional text.
Let I != A != -I, where I is the identity matrix and A is a real 2 x 2 matrix. If A = A^(-1), then the trace of A is
(A) '2', (B) '1', (C) '0', (D) '-1'
Answer:","","","","","","","","","","","","true","2","","","","","","","","",""
"survey-html-form","42","1227356","0.0-4.0-1.12","d2q0tt9d96u8bev","67658116d1ff218b001f2bf1","67b62c430b9240ccd8986e70","67b6351e973e24adf84ba721","3","39884.39999999851","","","{""mcAnswer"":""B""}","","","Let I != A != -I, where I is the identity matrix and A is a real 2 x 2 matrix. If A = A^(-1), then the trace of A is","[""2"",""1"",""0"",""-1""]","B","C","modiste","","C","237","algLinUCB_0.9","diff-topics","college_mathematics","The following are multiple choice questions about high_school_mathematics.
Colton and his dad bought a gallon of paint that cost $13. They also bought 2 brushes that cost $9 each. What was the total cost, not including tax, of the brushes and the paint they bought?
(A) $22, (B) $24, (C) $31, (D) $35
Answer: C
Solve for y. y – 2 + 3y = 10
(A) 2, (B) 3, (C) 4, (D) 5
Answer: B
Solve 3 over 2 * w = 66.
(A) 33, (B) 44, (C) 88, (D) 99
Answer: B
Write 5.875 as a mixed number or fraction in simplest form.
(A) 5 and 8 over 9, (B) 5 and 7 over 8, (C) 7 over 8, (D) 5 and 87 over 105
Answer: B
Solve the equation 124 = m + 34.
(A) 158, (B) 90, (C) 88, (D) 4,216
Answer: B
Zelma buys p pounds of bananas for 40 cents per pound. She pays the clerk with a twenty-dollar bill. The clerk subtracts the total cost of the bananas from the twenty-dollar bill to determine the amount of change to give Zelma. Which expression represents the amount of change Zelma should receive?
(A) p - 20, (B) 20 - 40p, (C) 20 - 0.40p, (D) 0.40p - 20
Answer: C
Please answer the following question with just the correct option (A, B, C, or D) without any explanation or additional text.
Let I != A != -I, where I is the identity matrix and A is a real 2 x 2 matrix. If A = A^(-1), then the trace of A is
(A) '2', (B) '1', (C) '0', (D) '-1'
Answer:","","","","","","","","","","","","","","","","","","","","","",""
"","","","","","","","","","","","","","","","","","","","","","","","","","","","B","","","","","","","","","","","","","","","","","","","","",""
"","","","","","","","","","","","","","","","","","","","","","","","","","","","","false","123","-1","B","false","false","defer","[]","false","0","true","2","{""elementary_mathematics"":[""41/51"",""31/50"",""6/8""],""high_school_mathematics"":[""30/54"",""23/52"",""3/6""],""college_mathematics"":[""22/50"",""26/52"",""2 / 5""]}","{""high_school_mathematics"":false,""elementary_mathematics"":false,""college_mathematics"":false}","You should outsource this problem to the AI agent","false","null","true","null","null",""
"image-keyboard-response","43","1228865","0.0-4.0-2.12","d2q0tt9d96u8bev","67658116d1ff218b001f2bf1","67b62c430b9240ccd8986e70","67b6351e973e24adf84ba721","3","null","","","null","","","Let I != A != -I, where I is the identity matrix and A is a real 2 x 2 matrix. If A = A^(-1), then the trace of A is","[""2"",""1"",""0"",""-1""]","B","C","modiste","","C","237","algLinUCB_0.9","diff-topics","college_mathematics","The following are multiple choice questions about high_school_mathematics.
Colton and his dad bought a gallon of paint that cost $13. They also bought 2 brushes that cost $9 each. What was the total cost, not including tax, of the brushes and the paint they bought?
(A) $22, (B) $24, (C) $31, (D) $35
Answer: C
Solve for y. y – 2 + 3y = 10
(A) 2, (B) 3, (C) 4, (D) 5
Answer: B
Solve 3 over 2 * w = 66.
(A) 33, (B) 44, (C) 88, (D) 99
Answer: B
Write 5.875 as a mixed number or fraction in simplest form.
(A) 5 and 8 over 9, (B) 5 and 7 over 8, (C) 7 over 8, (D) 5 and 87 over 105
Answer: B
Solve the equation 124 = m + 34.
(A) 158, (B) 90, (C) 88, (D) 4,216
Answer: B
Zelma buys p pounds of bananas for 40 cents per pound. She pays the clerk with a twenty-dollar bill. The clerk subtracts the total cost of the bananas from the twenty-dollar bill to determine the amount of change to give Zelma. Which expression represents the amount of change Zelma should receive?
(A) p - 20, (B) 20 - 40p, (C) 20 - 0.40p, (D) 0.40p - 20
Answer: C
Please answer the following question with just the correct option (A, B, C, or D) without any explanation or additional text.
Let I != A != -I, where I is the identity matrix and A is a real 2 x 2 matrix. If A = A^(-1), then the trace of A is
(A) '2', (B) '1', (C) '0', (D) '-1'
Answer:","","","","","","","","","","","","","","","","","","","","","","feedback_imgs/Incorrect.png"
"call-function","44","1228870","0.0-4.0-0.13","d2q0tt9d96u8bev","67658116d1ff218b001f2bf1","67b62c430b9240ccd8986e70","67b6351e973e24adf84ba721","3","","","","","","defer","Water drips out of a hole at the vertex of an upside down cone at a rate of 3 cm^3 per minute. The
cone's height and radius are 2 cm and 1 cm, respectively. At what rate does the height of the water change
when the water level is half a centimeter below the top of the cone? The volume of a cone is V = (π/3)*r^2*h,
where r is the radius and h is the height of the cone.","[""−48/π cm/min"",""−4/(3π) cm/min"",""−8/(3π) cm/min"",""−16/(3π) cm/min""]","B","D","modiste","","D","230","algLinUCB_0.9","diff-topics","college_mathematics","The following are multiple choice questions about high_school_mathematics.
Colton and his dad bought a gallon of paint that cost $13. They also bought 2 brushes that cost $9 each. What was the total cost, not including tax, of the brushes and the paint they bought?
(A) $22, (B) $24, (C) $31, (D) $35
Answer: C
Solve for y. y – 2 + 3y = 10
(A) 2, (B) 3, (C) 4, (D) 5
Answer: B
Solve 3 over 2 * w = 66.
(A) 33, (B) 44, (C) 88, (D) 99
Answer: B
Write 5.875 as a mixed number or fraction in simplest form.
(A) 5 and 8 over 9, (B) 5 and 7 over 8, (C) 7 over 8, (D) 5 and 87 over 105
Answer: B
Solve the equation 124 = m + 34.
(A) 158, (B) 90, (C) 88, (D) 4,216
Answer: B
Zelma buys p pounds of bananas for 40 cents per pound. She pays the clerk with a twenty-dollar bill. The clerk subtracts the total cost of the bananas from the twenty-dollar bill to determine the amount of change to give Zelma. Which expression represents the amount of change Zelma should receive?
(A) p - 20, (B) 20 - 40p, (C) 20 - 0.40p, (D) 0.40p - 20
Answer: C
Please answer the following question with just the correct option (A, B, C, or D) without any explanation or additional text.
Water drips out of a hole at the vertex of an upside down cone at a rate of 3 cm^3 per minute. The
cone’s height and radius are 2 cm and 1 cm, respectively. At what rate does the height of the water change
when the water level is half a centimeter below the top of the cone? The volume of a cone is V = (π/3)*r^2*h,
where r is the radius and h is the height of the cone.
(A) '−48/π cm/min', (B) '−4/(3π) cm/min', (C) '−8/(3π) cm/min', (D) '−16/(3π) cm/min'
Answer:","","","","","","","","","","","","true","2","","","","","","","","",""
"survey-html-form","45","1300065","0.0-4.0-1.13","d2q0tt9d96u8bev","67658116d1ff218b001f2bf1","67b62c430b9240ccd8986e70","67b6351e973e24adf84ba721","3","71177.10000000149","","","{""mcAnswer"":""B""}","","","Water drips out of a hole at the vertex of an upside down cone at a rate of 3 cm^3 per minute. The
cone's height and radius are 2 cm and 1 cm, respectively. At what rate does the height of the water change
when the water level is half a centimeter below the top of the cone? The volume of a cone is V = (π/3)*r^2*h,
where r is the radius and h is the height of the cone.","[""−48/π cm/min"",""−4/(3π) cm/min"",""−8/(3π) cm/min"",""−16/(3π) cm/min""]","B","D","modiste","","D","230","algLinUCB_0.9","diff-topics","college_mathematics","The following are multiple choice questions about high_school_mathematics.
Colton and his dad bought a gallon of paint that cost $13. They also bought 2 brushes that cost $9 each. What was the total cost, not including tax, of the brushes and the paint they bought?
(A) $22, (B) $24, (C) $31, (D) $35
Answer: C
Solve for y. y – 2 + 3y = 10
(A) 2, (B) 3, (C) 4, (D) 5
Answer: B
Solve 3 over 2 * w = 66.
(A) 33, (B) 44, (C) 88, (D) 99
Answer: B
Write 5.875 as a mixed number or fraction in simplest form.
(A) 5 and 8 over 9, (B) 5 and 7 over 8, (C) 7 over 8, (D) 5 and 87 over 105
Answer: B
Solve the equation 124 = m + 34.
(A) 158, (B) 90, (C) 88, (D) 4,216
Answer: B
Zelma buys p pounds of bananas for 40 cents per pound. She pays the clerk with a twenty-dollar bill. The clerk subtracts the total cost of the bananas from the twenty-dollar bill to determine the amount of change to give Zelma. Which expression represents the amount of change Zelma should receive?
(A) p - 20, (B) 20 - 40p, (C) 20 - 0.40p, (D) 0.40p - 20
Answer: C
Please answer the following question with just the correct option (A, B, C, or D) without any explanation or additional text.
Water drips out of a hole at the vertex of an upside down cone at a rate of 3 cm^3 per minute. The
cone’s height and radius are 2 cm and 1 cm, respectively. At what rate does the height of the water change
when the water level is half a centimeter below the top of the cone? The volume of a cone is V = (π/3)*r^2*h,
where r is the radius and h is the height of the cone.
(A) '−48/π cm/min', (B) '−4/(3π) cm/min', (C) '−8/(3π) cm/min', (D) '−16/(3π) cm/min'
Answer:","","","","","","","","","","","","","","","","","","","","","",""
"","","","","","","","","","","","","","","","","","","","","","","","","","","","B","","","","","","","","","","","","","","","","","","","","",""
"","","","","","","","","","","","","","","","","","","","","","","","","","","","","false","120","-1","B","false","false","defer","[]","false","0","true","2","{""elementary_mathematics"":[""41/51"",""31/50"",""6/8""],""high_school_mathematics"":[""30/54"",""23/52"",""3/6""],""college_mathematics"":[""22/50"",""26/53"",""2 / 5""]}","{""high_school_mathematics"":false,""elementary_mathematics"":false,""college_mathematics"":false}","You should outsource this problem to the AI agent","false","null","true","null","null",""
"image-keyboard-response","46","1301574","0.0-4.0-2.13","d2q0tt9d96u8bev","67658116d1ff218b001f2bf1","67b62c430b9240ccd8986e70","67b6351e973e24adf84ba721","3","null","","","null","","","Water drips out of a hole at the vertex of an upside down cone at a rate of 3 cm^3 per minute. The
cone's height and radius are 2 cm and 1 cm, respectively. At what rate does the height of the water change
when the water level is half a centimeter below the top of the cone? The volume of a cone is V = (π/3)*r^2*h,
where r is the radius and h is the height of the cone.","[""−48/π cm/min"",""−4/(3π) cm/min"",""−8/(3π) cm/min"",""−16/(3π) cm/min""]","B","D","modiste","","D","230","algLinUCB_0.9","diff-topics","college_mathematics","The following are multiple choice questions about high_school_mathematics.
Colton and his dad bought a gallon of paint that cost $13. They also bought 2 brushes that cost $9 each. What was the total cost, not including tax, of the brushes and the paint they bought?
(A) $22, (B) $24, (C) $31, (D) $35
Answer: C
Solve for y. y – 2 + 3y = 10
(A) 2, (B) 3, (C) 4, (D) 5
Answer: B
Solve 3 over 2 * w = 66.
(A) 33, (B) 44, (C) 88, (D) 99
Answer: B
Write 5.875 as a mixed number or fraction in simplest form.
(A) 5 and 8 over 9, (B) 5 and 7 over 8, (C) 7 over 8, (D) 5 and 87 over 105
Answer: B
Solve the equation 124 = m + 34.
(A) 158, (B) 90, (C) 88, (D) 4,216
Answer: B
Zelma buys p pounds of bananas for 40 cents per pound. She pays the clerk with a twenty-dollar bill. The clerk subtracts the total cost of the bananas from the twenty-dollar bill to determine the amount of change to give Zelma. Which expression represents the amount of change Zelma should receive?
(A) p - 20, (B) 20 - 40p, (C) 20 - 0.40p, (D) 0.40p - 20
Answer: C
Please answer the following question with just the correct option (A, B, C, or D) without any explanation or additional text.
Water drips out of a hole at the vertex of an upside down cone at a rate of 3 cm^3 per minute. The
cone’s height and radius are 2 cm and 1 cm, respectively. At what rate does the height of the water change
when the water level is half a centimeter below the top of the cone? The volume of a cone is V = (π/3)*r^2*h,
where r is the radius and h is the height of the cone.
(A) '−48/π cm/min', (B) '−4/(3π) cm/min', (C) '−8/(3π) cm/min', (D) '−16/(3π) cm/min'
Answer:","","","","","","","","","","","","","","","","","","","","","","feedback_imgs/Incorrect.png"
"call-function","47","1301578","0.0-4.0-0.14","d2q0tt9d96u8bev","67658116d1ff218b001f2bf1","67b62c430b9240ccd8986e70","67b6351e973e24adf84ba721","3","","","","","","defer","Write 7 over 33 as a decimal.","[""0.021 repeating"",""0.21 Repeating"",""0.22 Repeating"",""0.2121""]","A","B","modiste","","B","212","algLinUCB_0.9","diff-topics","elementary_mathematics","The following are multiple choice questions about high_school_mathematics.
Colton and his dad bought a gallon of paint that cost $13. They also bought 2 brushes that cost $9 each. What was the total cost, not including tax, of the brushes and the paint they bought?
(A) $22, (B) $24, (C) $31, (D) $35
Answer: C
Solve for y. y – 2 + 3y = 10
(A) 2, (B) 3, (C) 4, (D) 5
Answer: B
Solve 3 over 2 * w = 66.
(A) 33, (B) 44, (C) 88, (D) 99
Answer: B
Write 5.875 as a mixed number or fraction in simplest form.
(A) 5 and 8 over 9, (B) 5 and 7 over 8, (C) 7 over 8, (D) 5 and 87 over 105
Answer: B
Solve the equation 124 = m + 34.
(A) 158, (B) 90, (C) 88, (D) 4,216
Answer: B
Zelma buys p pounds of bananas for 40 cents per pound. She pays the clerk with a twenty-dollar bill. The clerk subtracts the total cost of the bananas from the twenty-dollar bill to determine the amount of change to give Zelma. Which expression represents the amount of change Zelma should receive?
(A) p - 20, (B) 20 - 40p, (C) 20 - 0.40p, (D) 0.40p - 20
Answer: C
Please answer the following question with just the correct option (A, B, C, or D) without any explanation or additional text.
Write 7 over 33 as a decimal.
(A) '0.021 repeating', (B) '0.21 Repeating', (C) '0.22 Repeating', (D) '0.2121'
Answer:","","","","","","","","","","","","","","","","","","","","","",""
"survey-html-form","48","1366293","0.0-4.0-1.14","d2q0tt9d96u8bev","67658116d1ff218b001f2bf1","67b62c430b9240ccd8986e70","67b6351e973e24adf84ba721","3","64696","","","{""mcAnswer"":""B""}","","","Write 7 over 33 as a decimal.","[""0.021 repeating"",""0.21 Repeating"",""0.22 Repeating"",""0.2121""]","A","B","modiste","","B","212","algLinUCB_0.9","diff-topics","elementary_mathematics","The following are multiple choice questions about high_school_mathematics.
Colton and his dad bought a gallon of paint that cost $13. They also bought 2 brushes that cost $9 each. What was the total cost, not including tax, of the brushes and the paint they bought?
(A) $22, (B) $24, (C) $31, (D) $35
Answer: C
Solve for y. y – 2 + 3y = 10
(A) 2, (B) 3, (C) 4, (D) 5
Answer: B
Solve 3 over 2 * w = 66.
(A) 33, (B) 44, (C) 88, (D) 99
Answer: B
Write 5.875 as a mixed number or fraction in simplest form.
(A) 5 and 8 over 9, (B) 5 and 7 over 8, (C) 7 over 8, (D) 5 and 87 over 105
Answer: B
Solve the equation 124 = m + 34.
(A) 158, (B) 90, (C) 88, (D) 4,216
Answer: B
Zelma buys p pounds of bananas for 40 cents per pound. She pays the clerk with a twenty-dollar bill. The clerk subtracts the total cost of the bananas from the twenty-dollar bill to determine the amount of change to give Zelma. Which expression represents the amount of change Zelma should receive?
(A) p - 20, (B) 20 - 40p, (C) 20 - 0.40p, (D) 0.40p - 20
Answer: C
Please answer the following question with just the correct option (A, B, C, or D) without any explanation or additional text.
Write 7 over 33 as a decimal.
(A) '0.021 repeating', (B) '0.21 Repeating', (C) '0.22 Repeating', (D) '0.2121'
Answer:","","","","","","","","","","","","","","","","","","","","","",""
"","","","","","","","","","","","","","","","","","","","","","","","","","","","B","","","","","","","","","","","","","","","","","","","","",""
"","","","","","","","","","","","","","","","","","","","","","","","","","","","","false","130","-1","A","true","false","defer","[]","false","0","false","0","{""elementary_mathematics"":[""41/51"",""31/50"",""7/9""],""high_school_mathematics"":[""30/54"",""23/52"",""3/6""],""college_mathematics"":[""22/50"",""26/53"",""2 / 5""]}","{""high_school_mathematics"":false,""elementary_mathematics"":false,""college_mathematics"":false}","You should outsource this problem to a human agent","null","null","null","false","null",""
"image-keyboard-response","49","1367802","0.0-4.0-2.14","d2q0tt9d96u8bev","67658116d1ff218b001f2bf1","67b62c430b9240ccd8986e70","67b6351e973e24adf84ba721","3","null","","","null","","","Write 7 over 33 as a decimal.","[""0.021 repeating"",""0.21 Repeating"",""0.22 Repeating"",""0.2121""]","A","B","modiste","","B","212","algLinUCB_0.9","diff-topics","elementary_mathematics","The following are multiple choice questions about high_school_mathematics.
Colton and his dad bought a gallon of paint that cost $13. They also bought 2 brushes that cost $9 each. What was the total cost, not including tax, of the brushes and the paint they bought?
(A) $22, (B) $24, (C) $31, (D) $35
Answer: C
Solve for y. y – 2 + 3y = 10
(A) 2, (B) 3, (C) 4, (D) 5
Answer: B
Solve 3 over 2 * w = 66.
(A) 33, (B) 44, (C) 88, (D) 99
Answer: B
Write 5.875 as a mixed number or fraction in simplest form.
(A) 5 and 8 over 9, (B) 5 and 7 over 8, (C) 7 over 8, (D) 5 and 87 over 105
Answer: B
Solve the equation 124 = m + 34.
(A) 158, (B) 90, (C) 88, (D) 4,216
Answer: B
Zelma buys p pounds of bananas for 40 cents per pound. She pays the clerk with a twenty-dollar bill. The clerk subtracts the total cost of the bananas from the twenty-dollar bill to determine the amount of change to give Zelma. Which expression represents the amount of change Zelma should receive?
(A) p - 20, (B) 20 - 40p, (C) 20 - 0.40p, (D) 0.40p - 20
Answer: C
Please answer the following question with just the correct option (A, B, C, or D) without any explanation or additional text.
Write 7 over 33 as a decimal.
(A) '0.021 repeating', (B) '0.21 Repeating', (C) '0.22 Repeating', (D) '0.2121'
Answer:","","","","","","","","","","","","","","","","","","","","","","feedback_imgs/Correct.png"
"call-function","50","1367806","0.0-4.0-0.15","d2q0tt9d96u8bev","67658116d1ff218b001f2bf1","67b62c430b9240ccd8986e70","67b6351e973e24adf84ba721","3","","","","","","defer","If f (x) = x^3 + 2x^2 – 9x – 18, which of the following statements is true?","[""f (x) = 0 has three real solutions."",""f (x) ≥ –18 for all x ≥ 0."",""f (x) ≤ –18 for all x ≤ 0."",""The function f (x) is decreasing for x ≤ –3.""]","B","A","modiste","","A","187","algLinUCB_0.9","diff-topics","high_school_mathematics","The following are multiple choice questions about high_school_mathematics.
Colton and his dad bought a gallon of paint that cost $13. They also bought 2 brushes that cost $9 each. What was the total cost, not including tax, of the brushes and the paint they bought?
(A) $22, (B) $24, (C) $31, (D) $35
Answer: C
Solve for y. y – 2 + 3y = 10
(A) 2, (B) 3, (C) 4, (D) 5
Answer: B
Solve 3 over 2 * w = 66.
(A) 33, (B) 44, (C) 88, (D) 99
Answer: B
Write 5.875 as a mixed number or fraction in simplest form.
(A) 5 and 8 over 9, (B) 5 and 7 over 8, (C) 7 over 8, (D) 5 and 87 over 105
Answer: B
Solve the equation 124 = m + 34.
(A) 158, (B) 90, (C) 88, (D) 4,216
Answer: B
Zelma buys p pounds of bananas for 40 cents per pound. She pays the clerk with a twenty-dollar bill. The clerk subtracts the total cost of the bananas from the twenty-dollar bill to determine the amount of change to give Zelma. Which expression represents the amount of change Zelma should receive?
(A) p - 20, (B) 20 - 40p, (C) 20 - 0.40p, (D) 0.40p - 20
Answer: C
Please answer the following question with just the correct option (A, B, C, or D) without any explanation or additional text.
If f (x) = x^3 + 2x^2 – 9x – 18, which of the following statements is true?
(A) 'f (x) = 0 has three real solutions.', (B) 'f (x) ≥ –18 for all x ≥ 0.', (C) 'f (x) ≤ –18 for all x ≤ 0.', (D) 'The function f (x) is decreasing for x ≤ –3.'
Answer:","","","","","","","","","","true","2","","","","","","","","","","",""
"survey-html-form","51","1440101","0.0-4.0-1.15","d2q0tt9d96u8bev","67658116d1ff218b001f2bf1","67b62c430b9240ccd8986e70","67b6351e973e24adf84ba721","3","72276.70000000298","","","{""mcAnswer"":""A""}","","","If f (x) = x^3 + 2x^2 – 9x – 18, which of the following statements is true?","[""f (x) = 0 has three real solutions."",""f (x) ≥ –18 for all x ≥ 0."",""f (x) ≤ –18 for all x ≤ 0."",""The function f (x) is decreasing for x ≤ –3.""]","B","A","modiste","","A","187","algLinUCB_0.9","diff-topics","high_school_mathematics","The following are multiple choice questions about high_school_mathematics.
Colton and his dad bought a gallon of paint that cost $13. They also bought 2 brushes that cost $9 each. What was the total cost, not including tax, of the brushes and the paint they bought?
(A) $22, (B) $24, (C) $31, (D) $35
Answer: C
Solve for y. y – 2 + 3y = 10
(A) 2, (B) 3, (C) 4, (D) 5
Answer: B
Solve 3 over 2 * w = 66.
(A) 33, (B) 44, (C) 88, (D) 99
Answer: B
Write 5.875 as a mixed number or fraction in simplest form.
(A) 5 and 8 over 9, (B) 5 and 7 over 8, (C) 7 over 8, (D) 5 and 87 over 105
Answer: B
Solve the equation 124 = m + 34.
(A) 158, (B) 90, (C) 88, (D) 4,216
Answer: B
Zelma buys p pounds of bananas for 40 cents per pound. She pays the clerk with a twenty-dollar bill. The clerk subtracts the total cost of the bananas from the twenty-dollar bill to determine the amount of change to give Zelma. Which expression represents the amount of change Zelma should receive?
(A) p - 20, (B) 20 - 40p, (C) 20 - 0.40p, (D) 0.40p - 20
Answer: C
Please answer the following question with just the correct option (A, B, C, or D) without any explanation or additional text.
