"trial_type","trial_index","time_elapsed","internal_node_id","subject","prolific_id","study_id","session_id","condition","rt","url","view_history","response","question_order","value","question","options","llm_answer","population_answer","task","subj_id","label","example_id","variant","main_variant","topic","prompt","0","btn_clicked","score","timeToClick","modelPred","humanCorrect","modelCorrect","interfaceType","modelPredDist","human_support_used","human_support_clicks","llm_support_used","llm_support_clicks","recommendation_lists","incorrect_answers_by_category","recommendation","LLM_outsourcing_overridden","human_outsourcing_overridden","ai_orch_agreement","human_orch_agreement","self_orch_agreement","stimulus"
"pavlovia","0","1677","0.0-0.0","2v9gx65uv0feq2t","5a8b61fcf1408d000176b02f","67b62c430b9240ccd8986e70","67b6336e8497d49dcd745411","4","","","","","","","","","","","","","","","","","","","","","","","","","","","","","","","","","","","","","","","",""
"external-html","1","15623","0.0-1.0","2v9gx65uv0feq2t","5a8b61fcf1408d000176b02f","67b62c430b9240ccd8986e70","67b6336e8497d49dcd745411","4","13743.60000000149","consent.html","","","","","","","","","","","","","","","","","","","","","","","","","","","","","","","","","","","","","",""
"instructions","2","95412","0.0-2.0-0.0","2v9gx65uv0feq2t","5a8b61fcf1408d000176b02f","67b62c430b9240ccd8986e70","67b6336e8497d49dcd745411","4","79786.80000000075","","[{""page_index"":0,""viewing_time"":4998.199999999255},{""page_index"":1,""viewing_time"":9733.699999999255},{""page_index"":2,""viewing_time"":12488},{""page_index"":3,""viewing_time"":11612.10000000149},{""page_index"":4,""viewing_time"":9331.699999999255},{""page_index"":5,""viewing_time"":18328.10000000149},{""page_index"":6,""viewing_time"":3718},{""page_index"":7,""viewing_time"":9576}]","","","","","","","","","","","","","","","","","","","","","","","","","","","","","","","","","","","","",""
"survey-multi-choice","3","118028","0.0-2.0-1.0","2v9gx65uv0feq2t","5a8b61fcf1408d000176b02f","67b62c430b9240ccd8986e70","67b6336e8497d49dcd745411","4","22609.60000000149","","","{""Q0"":""The answer to a mutliple choice question."",""Q1"":""Clicking on a radio button.""}","[0,1]","","","","","","","","","","","","","","","","","","","","","","","","","","","","","","","","","","",""
"instructions","4","145590","0.0-3.0","2v9gx65uv0feq2t","5a8b61fcf1408d000176b02f","67b62c430b9240ccd8986e70","67b6336e8497d49dcd745411","4","27558.10000000149","","[{""page_index"":0,""viewing_time"":27556.800000000745}]","","","","","","","","","","","","","","","","","","","","","","","","","","","","","","","","","","","","",""
"call-function","5","145594","0.0-4.0-0.0","2v9gx65uv0feq2t","5a8b61fcf1408d000176b02f","67b62c430b9240ccd8986e70","67b6336e8497d49dcd745411","4","","","","","","defer","Ms. Gutierrez needs to order rope for her gym class of 32 students. Each student will receive a piece of rope that is 5 feet 8 inches long. What is the total length of rope Ms. Gutierrez needs to order for her class?","[""106 feet 8 inches"",""154 feet 8 inches"",""160 feet 8 inches"",""181 feet 4 inches""]","D","D","modiste","","D","275","algLinUCB_0.9","diff-topics","elementary_mathematics","The following are multiple choice questions about high_school_mathematics.
Colton and his dad bought a gallon of paint that cost $13. They also bought 2 brushes that cost $9 each. What was the total cost, not including tax, of the brushes and the paint they bought?
(A) $22, (B) $24, (C) $31, (D) $35
Answer: C
Solve for y. y – 2 + 3y = 10
(A) 2, (B) 3, (C) 4, (D) 5
Answer: B
Solve 3 over 2 * w = 66.
(A) 33, (B) 44, (C) 88, (D) 99
Answer: B
Write 5.875 as a mixed number or fraction in simplest form.
(A) 5 and 8 over 9, (B) 5 and 7 over 8, (C) 7 over 8, (D) 5 and 87 over 105
Answer: B
Solve the equation 124 = m + 34.
(A) 158, (B) 90, (C) 88, (D) 4,216
Answer: B
Zelma buys p pounds of bananas for 40 cents per pound. She pays the clerk with a twenty-dollar bill. The clerk subtracts the total cost of the bananas from the twenty-dollar bill to determine the amount of change to give Zelma. Which expression represents the amount of change Zelma should receive?
(A) p - 20, (B) 20 - 40p, (C) 20 - 0.40p, (D) 0.40p - 20
Answer: C
Please answer the following question with just the correct option (A, B, C, or D) without any explanation or additional text.
Ms. Gutierrez needs to order rope for her gym class of 32 students. Each student will receive a piece of rope that is 5 feet 8 inches long. What is the total length of rope Ms. Gutierrez needs to order for her class?
(A) '106 feet 8 inches', (B) '154 feet 8 inches', (C) '160 feet 8 inches', (D) '181 feet 4 inches'
Answer:","","","","","","","","","","","","","","","","","","","","","",""
"survey-html-form","6","238556","0.0-4.0-1.0","2v9gx65uv0feq2t","5a8b61fcf1408d000176b02f","67b62c430b9240ccd8986e70","67b6336e8497d49dcd745411","4","92950.89999999851","","","{""mcAnswer"":""D""}","","","Ms. Gutierrez needs to order rope for her gym class of 32 students. Each student will receive a piece of rope that is 5 feet 8 inches long. What is the total length of rope Ms. Gutierrez needs to order for her class?","[""106 feet 8 inches"",""154 feet 8 inches"",""160 feet 8 inches"",""181 feet 4 inches""]","D","D","modiste","","D","275","algLinUCB_0.9","diff-topics","elementary_mathematics","The following are multiple choice questions about high_school_mathematics.
Colton and his dad bought a gallon of paint that cost $13. They also bought 2 brushes that cost $9 each. What was the total cost, not including tax, of the brushes and the paint they bought?
(A) $22, (B) $24, (C) $31, (D) $35
Answer: C
Solve for y. y – 2 + 3y = 10
(A) 2, (B) 3, (C) 4, (D) 5
Answer: B
Solve 3 over 2 * w = 66.
(A) 33, (B) 44, (C) 88, (D) 99
Answer: B
Write 5.875 as a mixed number or fraction in simplest form.
(A) 5 and 8 over 9, (B) 5 and 7 over 8, (C) 7 over 8, (D) 5 and 87 over 105
Answer: B
Solve the equation 124 = m + 34.
(A) 158, (B) 90, (C) 88, (D) 4,216
Answer: B
Zelma buys p pounds of bananas for 40 cents per pound. She pays the clerk with a twenty-dollar bill. The clerk subtracts the total cost of the bananas from the twenty-dollar bill to determine the amount of change to give Zelma. Which expression represents the amount of change Zelma should receive?
(A) p - 20, (B) 20 - 40p, (C) 20 - 0.40p, (D) 0.40p - 20
Answer: C
Please answer the following question with just the correct option (A, B, C, or D) without any explanation or additional text.
Ms. Gutierrez needs to order rope for her gym class of 32 students. Each student will receive a piece of rope that is 5 feet 8 inches long. What is the total length of rope Ms. Gutierrez needs to order for her class?
(A) '106 feet 8 inches', (B) '154 feet 8 inches', (C) '160 feet 8 inches', (D) '181 feet 4 inches'
Answer:","","","","","","","","","","","","","","","","","","","","","",""
"","","","","","","","","","","","","","","","","","","","","","","","","","","","D","","","","","","","","","","","","","","","","","","","","",""
"","","","","","","","","","","","","","","","","","","","","","","","","","","","","false","110","-1","D","true","true","defer","[]","false","0","false","0","{""elementary_mathematics"":[""40/50"",""31/50"",""5/6""],""high_school_mathematics"":[""27/50"",""22/50"",""3 / 5""],""college_mathematics"":[""22/50"",""26/50"",""2 / 5""]}","{""elementary_mathematics"":false}","You should attempt this problem by yourself","null","null","null","null","true",""
"image-keyboard-response","7","240061","0.0-4.0-2.0","2v9gx65uv0feq2t","5a8b61fcf1408d000176b02f","67b62c430b9240ccd8986e70","67b6336e8497d49dcd745411","4","null","","","null","","","Ms. Gutierrez needs to order rope for her gym class of 32 students. Each student will receive a piece of rope that is 5 feet 8 inches long. What is the total length of rope Ms. Gutierrez needs to order for her class?","[""106 feet 8 inches"",""154 feet 8 inches"",""160 feet 8 inches"",""181 feet 4 inches""]","D","D","modiste","","D","275","algLinUCB_0.9","diff-topics","elementary_mathematics","The following are multiple choice questions about high_school_mathematics.
Colton and his dad bought a gallon of paint that cost $13. They also bought 2 brushes that cost $9 each. What was the total cost, not including tax, of the brushes and the paint they bought?
(A) $22, (B) $24, (C) $31, (D) $35
Answer: C
Solve for y. y – 2 + 3y = 10
(A) 2, (B) 3, (C) 4, (D) 5
Answer: B
Solve 3 over 2 * w = 66.
(A) 33, (B) 44, (C) 88, (D) 99
Answer: B
Write 5.875 as a mixed number or fraction in simplest form.
(A) 5 and 8 over 9, (B) 5 and 7 over 8, (C) 7 over 8, (D) 5 and 87 over 105
Answer: B
Solve the equation 124 = m + 34.
(A) 158, (B) 90, (C) 88, (D) 4,216
Answer: B
Zelma buys p pounds of bananas for 40 cents per pound. She pays the clerk with a twenty-dollar bill. The clerk subtracts the total cost of the bananas from the twenty-dollar bill to determine the amount of change to give Zelma. Which expression represents the amount of change Zelma should receive?
(A) p - 20, (B) 20 - 40p, (C) 20 - 0.40p, (D) 0.40p - 20
Answer: C
Please answer the following question with just the correct option (A, B, C, or D) without any explanation or additional text.
Ms. Gutierrez needs to order rope for her gym class of 32 students. Each student will receive a piece of rope that is 5 feet 8 inches long. What is the total length of rope Ms. Gutierrez needs to order for her class?
(A) '106 feet 8 inches', (B) '154 feet 8 inches', (C) '160 feet 8 inches', (D) '181 feet 4 inches'
Answer:","","","","","","","","","","","","","","","","","","","","","","feedback_imgs/Correct.png"
"call-function","8","240062","0.0-4.0-0.1","2v9gx65uv0feq2t","5a8b61fcf1408d000176b02f","67b62c430b9240ccd8986e70","67b6336e8497d49dcd745411","4","","","","","","defer","Kerri ran the same distance in four different races. Her times were 18.04 seconds, 21.39 seconds, 12.99 seconds, and 14.14 seconds. If the individual times are rounded to the nearest one-tenth of a second, what is the estimate of Kerri's total time for all four races?","[""66.6 seconds"",""66.5 seconds"",""66 seconds"",""65.5 seconds""]","B","D","modiste","","B","268","algLinUCB_0.9","diff-topics","elementary_mathematics","The following are multiple choice questions about high_school_mathematics.
Colton and his dad bought a gallon of paint that cost $13. They also bought 2 brushes that cost $9 each. What was the total cost, not including tax, of the brushes and the paint they bought?
(A) $22, (B) $24, (C) $31, (D) $35
Answer: C
Solve for y. y – 2 + 3y = 10
(A) 2, (B) 3, (C) 4, (D) 5
Answer: B
Solve 3 over 2 * w = 66.
(A) 33, (B) 44, (C) 88, (D) 99
Answer: B
Write 5.875 as a mixed number or fraction in simplest form.
(A) 5 and 8 over 9, (B) 5 and 7 over 8, (C) 7 over 8, (D) 5 and 87 over 105
Answer: B
Solve the equation 124 = m + 34.
(A) 158, (B) 90, (C) 88, (D) 4,216
Answer: B
Zelma buys p pounds of bananas for 40 cents per pound. She pays the clerk with a twenty-dollar bill. The clerk subtracts the total cost of the bananas from the twenty-dollar bill to determine the amount of change to give Zelma. Which expression represents the amount of change Zelma should receive?
(A) p - 20, (B) 20 - 40p, (C) 20 - 0.40p, (D) 0.40p - 20
Answer: C
Please answer the following question with just the correct option (A, B, C, or D) without any explanation or additional text.
Kerri ran the same distance in four different races. Her times were 18.04 seconds, 21.39 seconds, 12.99 seconds, and 14.14 seconds. If the individual times are rounded to the nearest one-tenth of a second, what is the estimate of Kerri's total time for all four races?
(A) '66.6 seconds', (B) '66.5 seconds', (C) '66 seconds', (D) '65.5 seconds'
Answer:","","","","","","","","","","","","","","","","","","","","","",""
"survey-html-form","9","361731","0.0-4.0-1.1","2v9gx65uv0feq2t","5a8b61fcf1408d000176b02f","67b62c430b9240ccd8986e70","67b6336e8497d49dcd745411","4","121663.79999999702","","","{""mcAnswer"":""B""}","","","Kerri ran the same distance in four different races. Her times were 18.04 seconds, 21.39 seconds, 12.99 seconds, and 14.14 seconds. If the individual times are rounded to the nearest one-tenth of a second, what is the estimate of Kerri's total time for all four races?","[""66.6 seconds"",""66.5 seconds"",""66 seconds"",""65.5 seconds""]","B","D","modiste","","B","268","algLinUCB_0.9","diff-topics","elementary_mathematics","The following are multiple choice questions about high_school_mathematics.
Colton and his dad bought a gallon of paint that cost $13. They also bought 2 brushes that cost $9 each. What was the total cost, not including tax, of the brushes and the paint they bought?
(A) $22, (B) $24, (C) $31, (D) $35
Answer: C
Solve for y. y – 2 + 3y = 10
(A) 2, (B) 3, (C) 4, (D) 5
Answer: B
Solve 3 over 2 * w = 66.
(A) 33, (B) 44, (C) 88, (D) 99
Answer: B
Write 5.875 as a mixed number or fraction in simplest form.
(A) 5 and 8 over 9, (B) 5 and 7 over 8, (C) 7 over 8, (D) 5 and 87 over 105
Answer: B
Solve the equation 124 = m + 34.
(A) 158, (B) 90, (C) 88, (D) 4,216
Answer: B
Zelma buys p pounds of bananas for 40 cents per pound. She pays the clerk with a twenty-dollar bill. The clerk subtracts the total cost of the bananas from the twenty-dollar bill to determine the amount of change to give Zelma. Which expression represents the amount of change Zelma should receive?
(A) p - 20, (B) 20 - 40p, (C) 20 - 0.40p, (D) 0.40p - 20
Answer: C
Please answer the following question with just the correct option (A, B, C, or D) without any explanation or additional text.
Kerri ran the same distance in four different races. Her times were 18.04 seconds, 21.39 seconds, 12.99 seconds, and 14.14 seconds. If the individual times are rounded to the nearest one-tenth of a second, what is the estimate of Kerri's total time for all four races?
(A) '66.6 seconds', (B) '66.5 seconds', (C) '66 seconds', (D) '65.5 seconds'
Answer:","","","","","","","","","","","","","","","","","","","","","",""
"","","","","","","","","","","","","","","","","","","","","","","","","","","","B","","","","","","","","","","","","","","","","","","","","",""
"","","","","","","","","","","","","","","","","","","","","","","","","","","","","false","120","-1","B","true","true","defer","[]","false","0","false","0","{""elementary_mathematics"":[""40/50"",""31/50"",""6/7""],""high_school_mathematics"":[""27/50"",""22/50"",""3 / 5""],""college_mathematics"":[""22/50"",""26/50"",""2 / 5""]}","{""elementary_mathematics"":false}","You should attempt this problem by yourself","null","null","null","null","true",""
"image-keyboard-response","10","363238","0.0-4.0-2.1","2v9gx65uv0feq2t","5a8b61fcf1408d000176b02f","67b62c430b9240ccd8986e70","67b6336e8497d49dcd745411","4","null","","","null","","","Kerri ran the same distance in four different races. Her times were 18.04 seconds, 21.39 seconds, 12.99 seconds, and 14.14 seconds. If the individual times are rounded to the nearest one-tenth of a second, what is the estimate of Kerri's total time for all four races?","[""66.6 seconds"",""66.5 seconds"",""66 seconds"",""65.5 seconds""]","B","D","modiste","","B","268","algLinUCB_0.9","diff-topics","elementary_mathematics","The following are multiple choice questions about high_school_mathematics.
Colton and his dad bought a gallon of paint that cost $13. They also bought 2 brushes that cost $9 each. What was the total cost, not including tax, of the brushes and the paint they bought?
(A) $22, (B) $24, (C) $31, (D) $35
Answer: C
Solve for y. y – 2 + 3y = 10
(A) 2, (B) 3, (C) 4, (D) 5
Answer: B
Solve 3 over 2 * w = 66.
(A) 33, (B) 44, (C) 88, (D) 99
Answer: B
Write 5.875 as a mixed number or fraction in simplest form.
(A) 5 and 8 over 9, (B) 5 and 7 over 8, (C) 7 over 8, (D) 5 and 87 over 105
Answer: B
Solve the equation 124 = m + 34.
(A) 158, (B) 90, (C) 88, (D) 4,216
Answer: B
Zelma buys p pounds of bananas for 40 cents per pound. She pays the clerk with a twenty-dollar bill. The clerk subtracts the total cost of the bananas from the twenty-dollar bill to determine the amount of change to give Zelma. Which expression represents the amount of change Zelma should receive?
(A) p - 20, (B) 20 - 40p, (C) 20 - 0.40p, (D) 0.40p - 20
Answer: C
Please answer the following question with just the correct option (A, B, C, or D) without any explanation or additional text.
Kerri ran the same distance in four different races. Her times were 18.04 seconds, 21.39 seconds, 12.99 seconds, and 14.14 seconds. If the individual times are rounded to the nearest one-tenth of a second, what is the estimate of Kerri's total time for all four races?
(A) '66.6 seconds', (B) '66.5 seconds', (C) '66 seconds', (D) '65.5 seconds'
Answer:","","","","","","","","","","","","","","","","","","","","","","feedback_imgs/Correct.png"
"call-function","11","363239","0.0-4.0-0.2","2v9gx65uv0feq2t","5a8b61fcf1408d000176b02f","67b62c430b9240ccd8986e70","67b6336e8497d49dcd745411","4","","","","","","defer","A salad dressing is made by combining 2 parts vinegar with 5 parts oil. How many ounces of oil should be mixed with 9 ounces of vinegar?","[""2"",""3.6"",""22.5"",""63""]","C","C","modiste","","C","279","algLinUCB_0.9","diff-topics","elementary_mathematics","The following are multiple choice questions about high_school_mathematics.
Colton and his dad bought a gallon of paint that cost $13. They also bought 2 brushes that cost $9 each. What was the total cost, not including tax, of the brushes and the paint they bought?
(A) $22, (B) $24, (C) $31, (D) $35
Answer: C
Solve for y. y – 2 + 3y = 10
(A) 2, (B) 3, (C) 4, (D) 5
Answer: B
Solve 3 over 2 * w = 66.
(A) 33, (B) 44, (C) 88, (D) 99
Answer: B
Write 5.875 as a mixed number or fraction in simplest form.
(A) 5 and 8 over 9, (B) 5 and 7 over 8, (C) 7 over 8, (D) 5 and 87 over 105
Answer: B
Solve the equation 124 = m + 34.
(A) 158, (B) 90, (C) 88, (D) 4,216
Answer: B
Zelma buys p pounds of bananas for 40 cents per pound. She pays the clerk with a twenty-dollar bill. The clerk subtracts the total cost of the bananas from the twenty-dollar bill to determine the amount of change to give Zelma. Which expression represents the amount of change Zelma should receive?
(A) p - 20, (B) 20 - 40p, (C) 20 - 0.40p, (D) 0.40p - 20
Answer: C
Please answer the following question with just the correct option (A, B, C, or D) without any explanation or additional text.
A salad dressing is made by combining 2 parts vinegar with 5 parts oil. How many ounces of oil should be mixed with 9 ounces of vinegar?
(A) '2', (B) '3.6', (C) '22.5', (D) '63'
Answer:","","","","","","","","","","","","true","2","","","","","","","","",""
"survey-html-form","12","509388","0.0-4.0-1.2","2v9gx65uv0feq2t","5a8b61fcf1408d000176b02f","67b62c430b9240ccd8986e70","67b6336e8497d49dcd745411","4","146144.5","","","{""mcAnswer"":""C""}","","","A salad dressing is made by combining 2 parts vinegar with 5 parts oil. How many ounces of oil should be mixed with 9 ounces of vinegar?","[""2"",""3.6"",""22.5"",""63""]","C","C","modiste","","C","279","algLinUCB_0.9","diff-topics","elementary_mathematics","The following are multiple choice questions about high_school_mathematics.
Colton and his dad bought a gallon of paint that cost $13. They also bought 2 brushes that cost $9 each. What was the total cost, not including tax, of the brushes and the paint they bought?
(A) $22, (B) $24, (C) $31, (D) $35
Answer: C
Solve for y. y – 2 + 3y = 10
(A) 2, (B) 3, (C) 4, (D) 5
Answer: B
Solve 3 over 2 * w = 66.
(A) 33, (B) 44, (C) 88, (D) 99
Answer: B
Write 5.875 as a mixed number or fraction in simplest form.
(A) 5 and 8 over 9, (B) 5 and 7 over 8, (C) 7 over 8, (D) 5 and 87 over 105
Answer: B
Solve the equation 124 = m + 34.
(A) 158, (B) 90, (C) 88, (D) 4,216
Answer: B
Zelma buys p pounds of bananas for 40 cents per pound. She pays the clerk with a twenty-dollar bill. The clerk subtracts the total cost of the bananas from the twenty-dollar bill to determine the amount of change to give Zelma. Which expression represents the amount of change Zelma should receive?
(A) p - 20, (B) 20 - 40p, (C) 20 - 0.40p, (D) 0.40p - 20
Answer: C
Please answer the following question with just the correct option (A, B, C, or D) without any explanation or additional text.
A salad dressing is made by combining 2 parts vinegar with 5 parts oil. How many ounces of oil should be mixed with 9 ounces of vinegar?
(A) '2', (B) '3.6', (C) '22.5', (D) '63'
Answer:","","","","","","","","","","","","","","","","","","","","","",""
"","","","","","","","","","","","","","","","","","","","","","","","","","","","C","","","","","","","","","","","","","","","","","","","","",""
"","","","","","","","","","","","","","","","","","","","","","","","","","","","","false","127","-1","C","true","true","defer","[]","false","0","true","2","{""elementary_mathematics"":[""40/50"",""32/51"",""6/7""],""high_school_mathematics"":[""27/50"",""22/50"",""3 / 5""],""college_mathematics"":[""22/50"",""26/50"",""2 / 5""]}","{""elementary_mathematics"":false}","You should attempt this problem by yourself","false","null","null","null","false",""
"image-keyboard-response","13","510896","0.0-4.0-2.2","2v9gx65uv0feq2t","5a8b61fcf1408d000176b02f","67b62c430b9240ccd8986e70","67b6336e8497d49dcd745411","4","null","","","null","","","A salad dressing is made by combining 2 parts vinegar with 5 parts oil. How many ounces of oil should be mixed with 9 ounces of vinegar?","[""2"",""3.6"",""22.5"",""63""]","C","C","modiste","","C","279","algLinUCB_0.9","diff-topics","elementary_mathematics","The following are multiple choice questions about high_school_mathematics.
Colton and his dad bought a gallon of paint that cost $13. They also bought 2 brushes that cost $9 each. What was the total cost, not including tax, of the brushes and the paint they bought?
(A) $22, (B) $24, (C) $31, (D) $35
Answer: C
Solve for y. y – 2 + 3y = 10
(A) 2, (B) 3, (C) 4, (D) 5
Answer: B
Solve 3 over 2 * w = 66.
(A) 33, (B) 44, (C) 88, (D) 99
Answer: B
Write 5.875 as a mixed number or fraction in simplest form.
(A) 5 and 8 over 9, (B) 5 and 7 over 8, (C) 7 over 8, (D) 5 and 87 over 105
Answer: B
Solve the equation 124 = m + 34.
(A) 158, (B) 90, (C) 88, (D) 4,216
Answer: B
Zelma buys p pounds of bananas for 40 cents per pound. She pays the clerk with a twenty-dollar bill. The clerk subtracts the total cost of the bananas from the twenty-dollar bill to determine the amount of change to give Zelma. Which expression represents the amount of change Zelma should receive?
(A) p - 20, (B) 20 - 40p, (C) 20 - 0.40p, (D) 0.40p - 20
Answer: C
Please answer the following question with just the correct option (A, B, C, or D) without any explanation or additional text.
A salad dressing is made by combining 2 parts vinegar with 5 parts oil. How many ounces of oil should be mixed with 9 ounces of vinegar?
(A) '2', (B) '3.6', (C) '22.5', (D) '63'
Answer:","","","","","","","","","","","","","","","","","","","","","","feedback_imgs/Correct.png"
"call-function","14","510897","0.0-4.0-0.3","2v9gx65uv0feq2t","5a8b61fcf1408d000176b02f","67b62c430b9240ccd8986e70","67b6336e8497d49dcd745411","4","","","","","","defer","What is the value of y in the equation y/4 = 8?","[""2"",""4"",""12"",""32""]","D","D","modiste","","D","262","algLinUCB_0.9","diff-topics","elementary_mathematics","The following are multiple choice questions about high_school_mathematics.
Colton and his dad bought a gallon of paint that cost $13. They also bought 2 brushes that cost $9 each. What was the total cost, not including tax, of the brushes and the paint they bought?
(A) $22, (B) $24, (C) $31, (D) $35
Answer: C
Solve for y. y – 2 + 3y = 10
(A) 2, (B) 3, (C) 4, (D) 5
Answer: B
Solve 3 over 2 * w = 66.
(A) 33, (B) 44, (C) 88, (D) 99
Answer: B
Write 5.875 as a mixed number or fraction in simplest form.
(A) 5 and 8 over 9, (B) 5 and 7 over 8, (C) 7 over 8, (D) 5 and 87 over 105
Answer: B
Solve the equation 124 = m + 34.
(A) 158, (B) 90, (C) 88, (D) 4,216
Answer: B
Zelma buys p pounds of bananas for 40 cents per pound. She pays the clerk with a twenty-dollar bill. The clerk subtracts the total cost of the bananas from the twenty-dollar bill to determine the amount of change to give Zelma. Which expression represents the amount of change Zelma should receive?
(A) p - 20, (B) 20 - 40p, (C) 20 - 0.40p, (D) 0.40p - 20
Answer: C
Please answer the following question with just the correct option (A, B, C, or D) without any explanation or additional text.
What is the value of y in the equation y/4 = 8?
(A) '2', (B) '4', (C) '12', (D) '32'
Answer:","","","","","","","","","","","","","","","","","","","","","",""
"survey-html-form","15","554385","0.0-4.0-1.3","2v9gx65uv0feq2t","5a8b61fcf1408d000176b02f","67b62c430b9240ccd8986e70","67b6336e8497d49dcd745411","4","43480","","","{""mcAnswer"":""D""}","","","What is the value of y in the equation y/4 = 8?","[""2"",""4"",""12"",""32""]","D","D","modiste","","D","262","algLinUCB_0.9","diff-topics","elementary_mathematics","The following are multiple choice questions about high_school_mathematics.
Colton and his dad bought a gallon of paint that cost $13. They also bought 2 brushes that cost $9 each. What was the total cost, not including tax, of the brushes and the paint they bought?
(A) $22, (B) $24, (C) $31, (D) $35
Answer: C
Solve for y. y – 2 + 3y = 10
(A) 2, (B) 3, (C) 4, (D) 5
Answer: B
Solve 3 over 2 * w = 66.
(A) 33, (B) 44, (C) 88, (D) 99
Answer: B
Write 5.875 as a mixed number or fraction in simplest form.
(A) 5 and 8 over 9, (B) 5 and 7 over 8, (C) 7 over 8, (D) 5 and 87 over 105
Answer: B
Solve the equation 124 = m + 34.
(A) 158, (B) 90, (C) 88, (D) 4,216
Answer: B
Zelma buys p pounds of bananas for 40 cents per pound. She pays the clerk with a twenty-dollar bill. The clerk subtracts the total cost of the bananas from the twenty-dollar bill to determine the amount of change to give Zelma. Which expression represents the amount of change Zelma should receive?
(A) p - 20, (B) 20 - 40p, (C) 20 - 0.40p, (D) 0.40p - 20
Answer: C
Please answer the following question with just the correct option (A, B, C, or D) without any explanation or additional text.
What is the value of y in the equation y/4 = 8?
(A) '2', (B) '4', (C) '12', (D) '32'
Answer:","","","","","","","","","","","","","","","","","","","","","",""
"","","","","","","","","","","","","","","","","","","","","","","","","","","","D","","","","","","","","","","","","","","","","","","","","",""
"","","","","","","","","","","","","","","","","","","","","","","","","","","","","false","137","-1","D","true","true","defer","[]","false","0","false","0","{""elementary_mathematics"":[""40/50"",""32/51"",""7/8""],""high_school_mathematics"":[""27/50"",""22/50"",""3 / 5""],""college_mathematics"":[""22/50"",""26/50"",""2 / 5""]}","{""elementary_mathematics"":false}","You should attempt this problem by yourself","null","null","null","null","true",""
"image-keyboard-response","16","555888","0.0-4.0-2.3","2v9gx65uv0feq2t","5a8b61fcf1408d000176b02f","67b62c430b9240ccd8986e70","67b6336e8497d49dcd745411","4","null","","","null","","","What is the value of y in the equation y/4 = 8?","[""2"",""4"",""12"",""32""]","D","D","modiste","","D","262","algLinUCB_0.9","diff-topics","elementary_mathematics","The following are multiple choice questions about high_school_mathematics.
Colton and his dad bought a gallon of paint that cost $13. They also bought 2 brushes that cost $9 each. What was the total cost, not including tax, of the brushes and the paint they bought?
(A) $22, (B) $24, (C) $31, (D) $35
Answer: C
Solve for y. y – 2 + 3y = 10
(A) 2, (B) 3, (C) 4, (D) 5
Answer: B
Solve 3 over 2 * w = 66.
(A) 33, (B) 44, (C) 88, (D) 99
Answer: B
Write 5.875 as a mixed number or fraction in simplest form.
(A) 5 and 8 over 9, (B) 5 and 7 over 8, (C) 7 over 8, (D) 5 and 87 over 105
Answer: B
Solve the equation 124 = m + 34.
(A) 158, (B) 90, (C) 88, (D) 4,216
Answer: B
Zelma buys p pounds of bananas for 40 cents per pound. She pays the clerk with a twenty-dollar bill. The clerk subtracts the total cost of the bananas from the twenty-dollar bill to determine the amount of change to give Zelma. Which expression represents the amount of change Zelma should receive?
(A) p - 20, (B) 20 - 40p, (C) 20 - 0.40p, (D) 0.40p - 20
Answer: C
Please answer the following question with just the correct option (A, B, C, or D) without any explanation or additional text.
What is the value of y in the equation y/4 = 8?
(A) '2', (B) '4', (C) '12', (D) '32'
Answer:","","","","","","","","","","","","","","","","","","","","","","feedback_imgs/Correct.png"
"call-function","17","555890","0.0-4.0-0.4","2v9gx65uv0feq2t","5a8b61fcf1408d000176b02f","67b62c430b9240ccd8986e70","67b6336e8497d49dcd745411","4","","","","","","defer","What value of y makes y + 2.9 = 11 true?","[""8.1"",""8.9"",""9.1"",""13.9""]","B","A","modiste","","A","266","algLinUCB_0.9","diff-topics","elementary_mathematics","The following are multiple choice questions about high_school_mathematics.
Colton and his dad bought a gallon of paint that cost $13. They also bought 2 brushes that cost $9 each. What was the total cost, not including tax, of the brushes and the paint they bought?
(A) $22, (B) $24, (C) $31, (D) $35
Answer: C
Solve for y. y – 2 + 3y = 10
(A) 2, (B) 3, (C) 4, (D) 5
Answer: B
Solve 3 over 2 * w = 66.
(A) 33, (B) 44, (C) 88, (D) 99
Answer: B
Write 5.875 as a mixed number or fraction in simplest form.
(A) 5 and 8 over 9, (B) 5 and 7 over 8, (C) 7 over 8, (D) 5 and 87 over 105
Answer: B
Solve the equation 124 = m + 34.
(A) 158, (B) 90, (C) 88, (D) 4,216
Answer: B
Zelma buys p pounds of bananas for 40 cents per pound. She pays the clerk with a twenty-dollar bill. The clerk subtracts the total cost of the bananas from the twenty-dollar bill to determine the amount of change to give Zelma. Which expression represents the amount of change Zelma should receive?
(A) p - 20, (B) 20 - 40p, (C) 20 - 0.40p, (D) 0.40p - 20
Answer: C
Please answer the following question with just the correct option (A, B, C, or D) without any explanation or additional text.
What value of y makes y + 2.9 = 11 true?
(A) '8.1', (B) '8.9', (C) '9.1', (D) '13.9'
Answer:","","","","","","","","","","","","","","","","","","","","","",""
"survey-html-form","18","574751","0.0-4.0-1.4","2v9gx65uv0feq2t","5a8b61fcf1408d000176b02f","67b62c430b9240ccd8986e70","67b6336e8497d49dcd745411","4","18852.60000000149","","","{""mcAnswer"":""C""}","","","What value of y makes y + 2.9 = 11 true?","[""8.1"",""8.9"",""9.1"",""13.9""]","B","A","modiste","","A","266","algLinUCB_0.9","diff-topics","elementary_mathematics","The following are multiple choice questions about high_school_mathematics.
Colton and his dad bought a gallon of paint that cost $13. They also bought 2 brushes that cost $9 each. What was the total cost, not including tax, of the brushes and the paint they bought?
(A) $22, (B) $24, (C) $31, (D) $35
Answer: C
Solve for y. y – 2 + 3y = 10
(A) 2, (B) 3, (C) 4, (D) 5
Answer: B
Solve 3 over 2 * w = 66.
(A) 33, (B) 44, (C) 88, (D) 99
Answer: B
Write 5.875 as a mixed number or fraction in simplest form.
(A) 5 and 8 over 9, (B) 5 and 7 over 8, (C) 7 over 8, (D) 5 and 87 over 105
Answer: B
Solve the equation 124 = m + 34.
(A) 158, (B) 90, (C) 88, (D) 4,216
Answer: B
Zelma buys p pounds of bananas for 40 cents per pound. She pays the clerk with a twenty-dollar bill. The clerk subtracts the total cost of the bananas from the twenty-dollar bill to determine the amount of change to give Zelma. Which expression represents the amount of change Zelma should receive?
(A) p - 20, (B) 20 - 40p, (C) 20 - 0.40p, (D) 0.40p - 20
Answer: C
Please answer the following question with just the correct option (A, B, C, or D) without any explanation or additional text.
What value of y makes y + 2.9 = 11 true?
(A) '8.1', (B) '8.9', (C) '9.1', (D) '13.9'
Answer:","","","","","","","","","","","","","","","","","","","","","",""
"","","","","","","","","","","","","","","","","","","","","","","","","","","","C","","","","","","","","","","","","","","","","","","","","",""
"","","","","","","","","","","","","","","","","","","","","","","","","","","","","false","137","-1","B","false","false","defer","[]","false","0","false","0","{""elementary_mathematics"":[""40/50"",""32/51"",""7/9""],""high_school_mathematics"":[""27/50"",""22/50"",""3 / 5""],""college_mathematics"":[""22/50"",""26/50"",""2 / 5""]}","{""elementary_mathematics"":true}","You should attempt this problem by yourself","null","null","null","null","true",""
"image-keyboard-response","19","576258","0.0-4.0-2.4","2v9gx65uv0feq2t","5a8b61fcf1408d000176b02f","67b62c430b9240ccd8986e70","67b6336e8497d49dcd745411","4","null","","","null","","","What value of y makes y + 2.9 = 11 true?","[""8.1"",""8.9"",""9.1"",""13.9""]","B","A","modiste","","A","266","algLinUCB_0.9","diff-topics","elementary_mathematics","The following are multiple choice questions about high_school_mathematics.
Colton and his dad bought a gallon of paint that cost $13. They also bought 2 brushes that cost $9 each. What was the total cost, not including tax, of the brushes and the paint they bought?
(A) $22, (B) $24, (C) $31, (D) $35
Answer: C
Solve for y. y – 2 + 3y = 10
(A) 2, (B) 3, (C) 4, (D) 5
Answer: B
Solve 3 over 2 * w = 66.
(A) 33, (B) 44, (C) 88, (D) 99
Answer: B
Write 5.875 as a mixed number or fraction in simplest form.
(A) 5 and 8 over 9, (B) 5 and 7 over 8, (C) 7 over 8, (D) 5 and 87 over 105
Answer: B
Solve the equation 124 = m + 34.
(A) 158, (B) 90, (C) 88, (D) 4,216
Answer: B
Zelma buys p pounds of bananas for 40 cents per pound. She pays the clerk with a twenty-dollar bill. The clerk subtracts the total cost of the bananas from the twenty-dollar bill to determine the amount of change to give Zelma. Which expression represents the amount of change Zelma should receive?
(A) p - 20, (B) 20 - 40p, (C) 20 - 0.40p, (D) 0.40p - 20
Answer: C
Please answer the following question with just the correct option (A, B, C, or D) without any explanation or additional text.
What value of y makes y + 2.9 = 11 true?
(A) '8.1', (B) '8.9', (C) '9.1', (D) '13.9'
Answer:","","","","","","","","","","","","","","","","","","","","","","feedback_imgs/Incorrect.png"
"call-function","20","576259","0.0-4.0-0.5","2v9gx65uv0feq2t","5a8b61fcf1408d000176b02f","67b62c430b9240ccd8986e70","67b6336e8497d49dcd745411","4","","","","","","defer","What is the greatest common factor of 36 and 90?","[""6"",""18"",""36"",""180""]","B","B","modiste","","B","272","algLinUCB_0.9","diff-topics","elementary_mathematics","The following are multiple choice questions about high_school_mathematics.
Colton and his dad bought a gallon of paint that cost $13. They also bought 2 brushes that cost $9 each. What was the total cost, not including tax, of the brushes and the paint they bought?
(A) $22, (B) $24, (C) $31, (D) $35
Answer: C
Solve for y. y – 2 + 3y = 10
(A) 2, (B) 3, (C) 4, (D) 5
Answer: B
Solve 3 over 2 * w = 66.
(A) 33, (B) 44, (C) 88, (D) 99
Answer: B
Write 5.875 as a mixed number or fraction in simplest form.
(A) 5 and 8 over 9, (B) 5 and 7 over 8, (C) 7 over 8, (D) 5 and 87 over 105
Answer: B
Solve the equation 124 = m + 34.
(A) 158, (B) 90, (C) 88, (D) 4,216
Answer: B
Zelma buys p pounds of bananas for 40 cents per pound. She pays the clerk with a twenty-dollar bill. The clerk subtracts the total cost of the bananas from the twenty-dollar bill to determine the amount of change to give Zelma. Which expression represents the amount of change Zelma should receive?
(A) p - 20, (B) 20 - 40p, (C) 20 - 0.40p, (D) 0.40p - 20
Answer: C
Please answer the following question with just the correct option (A, B, C, or D) without any explanation or additional text.
What is the greatest common factor of 36 and 90?
(A) '6', (B) '18', (C) '36', (D) '180'
Answer:","","","","","","","","","","","","true","2","","","","","","","","",""
"survey-html-form","21","615096","0.0-4.0-1.5","2v9gx65uv0feq2t","5a8b61fcf1408d000176b02f","67b62c430b9240ccd8986e70","67b6336e8497d49dcd745411","4","38825.5","","","{""mcAnswer"":""B""}","","","What is the greatest common factor of 36 and 90?","[""6"",""18"",""36"",""180""]","B","B","modiste","","B","272","algLinUCB_0.9","diff-topics","elementary_mathematics","The following are multiple choice questions about high_school_mathematics.
Colton and his dad bought a gallon of paint that cost $13. They also bought 2 brushes that cost $9 each. What was the total cost, not including tax, of the brushes and the paint they bought?
(A) $22, (B) $24, (C) $31, (D) $35
Answer: C
Solve for y. y – 2 + 3y = 10
(A) 2, (B) 3, (C) 4, (D) 5
Answer: B
Solve 3 over 2 * w = 66.
(A) 33, (B) 44, (C) 88, (D) 99
Answer: B
Write 5.875 as a mixed number or fraction in simplest form.
(A) 5 and 8 over 9, (B) 5 and 7 over 8, (C) 7 over 8, (D) 5 and 87 over 105
Answer: B
Solve the equation 124 = m + 34.
(A) 158, (B) 90, (C) 88, (D) 4,216
Answer: B
Zelma buys p pounds of bananas for 40 cents per pound. She pays the clerk with a twenty-dollar bill. The clerk subtracts the total cost of the bananas from the twenty-dollar bill to determine the amount of change to give Zelma. Which expression represents the amount of change Zelma should receive?
(A) p - 20, (B) 20 - 40p, (C) 20 - 0.40p, (D) 0.40p - 20
Answer: C
Please answer the following question with just the correct option (A, B, C, or D) without any explanation or additional text.
What is the greatest common factor of 36 and 90?
(A) '6', (B) '18', (C) '36', (D) '180'
Answer:","","","","","","","","","","","","","","","","","","","","","",""
"","","","","","","","","","","","","","","","","","","","","","","","","","","","B","","","","","","","","","","","","","","","","","","","","",""
"","","","","","","","","","","","","","","","","","","","","","","","","","","","","false","144","-1","B","true","true","defer","[]","false","0","true","2","{""elementary_mathematics"":[""40/50"",""33/52"",""7/9""],""high_school_mathematics"":[""27/50"",""22/50"",""3 / 5""],""college_mathematics"":[""22/50"",""26/50"",""2 / 5""]}","{""elementary_mathematics"":false}","You were wrong by yourself on elementary_mathematics last time. You should outsource this problem to a human agent","false","null","null","false","null",""
"image-keyboard-response","22","616602","0.0-4.0-2.5","2v9gx65uv0feq2t","5a8b61fcf1408d000176b02f","67b62c430b9240ccd8986e70","67b6336e8497d49dcd745411","4","null","","","null","","","What is the greatest common factor of 36 and 90?","[""6"",""18"",""36"",""180""]","B","B","modiste","","B","272","algLinUCB_0.9","diff-topics","elementary_mathematics","The following are multiple choice questions about high_school_mathematics.
Colton and his dad bought a gallon of paint that cost $13. They also bought 2 brushes that cost $9 each. What was the total cost, not including tax, of the brushes and the paint they bought?
(A) $22, (B) $24, (C) $31, (D) $35
Answer: C
Solve for y. y – 2 + 3y = 10
(A) 2, (B) 3, (C) 4, (D) 5
Answer: B
Solve 3 over 2 * w = 66.
(A) 33, (B) 44, (C) 88, (D) 99
Answer: B
Write 5.875 as a mixed number or fraction in simplest form.
(A) 5 and 8 over 9, (B) 5 and 7 over 8, (C) 7 over 8, (D) 5 and 87 over 105
Answer: B
Solve the equation 124 = m + 34.
(A) 158, (B) 90, (C) 88, (D) 4,216
Answer: B
Zelma buys p pounds of bananas for 40 cents per pound. She pays the clerk with a twenty-dollar bill. The clerk subtracts the total cost of the bananas from the twenty-dollar bill to determine the amount of change to give Zelma. Which expression represents the amount of change Zelma should receive?
(A) p - 20, (B) 20 - 40p, (C) 20 - 0.40p, (D) 0.40p - 20
Answer: C
Please answer the following question with just the correct option (A, B, C, or D) without any explanation or additional text.
What is the greatest common factor of 36 and 90?
(A) '6', (B) '18', (C) '36', (D) '180'
Answer:","","","","","","","","","","","","","","","","","","","","","","feedback_imgs/Correct.png"
"call-function","23","616603","0.0-4.0-0.6","2v9gx65uv0feq2t","5a8b61fcf1408d000176b02f","67b62c430b9240ccd8986e70","67b6336e8497d49dcd745411","4","","","","","","defer","Find the exact answer: 110 + 70","[""18"",""81"",""180"",""810""]","C","C","modiste","","C","270","algLinUCB_0.9","diff-topics","elementary_mathematics","The following are multiple choice questions about high_school_mathematics.
Colton and his dad bought a gallon of paint that cost $13. They also bought 2 brushes that cost $9 each. What was the total cost, not including tax, of the brushes and the paint they bought?
(A) $22, (B) $24, (C) $31, (D) $35
Answer: C
Solve for y. y – 2 + 3y = 10
(A) 2, (B) 3, (C) 4, (D) 5
Answer: B
Solve 3 over 2 * w = 66.
(A) 33, (B) 44, (C) 88, (D) 99
Answer: B
Write 5.875 as a mixed number or fraction in simplest form.
(A) 5 and 8 over 9, (B) 5 and 7 over 8, (C) 7 over 8, (D) 5 and 87 over 105
Answer: B
Solve the equation 124 = m + 34.
(A) 158, (B) 90, (C) 88, (D) 4,216
Answer: B
Zelma buys p pounds of bananas for 40 cents per pound. She pays the clerk with a twenty-dollar bill. The clerk subtracts the total cost of the bananas from the twenty-dollar bill to determine the amount of change to give Zelma. Which expression represents the amount of change Zelma should receive?
(A) p - 20, (B) 20 - 40p, (C) 20 - 0.40p, (D) 0.40p - 20
Answer: C
Please answer the following question with just the correct option (A, B, C, or D) without any explanation or additional text.
Find the exact answer: 110 + 70
(A) '18', (B) '81', (C) '180', (D) '810'
Answer:","","","","","","","","","","","","","","","","","","","","","",""
"survey-html-form","24","627835","0.0-4.0-1.6","2v9gx65uv0feq2t","5a8b61fcf1408d000176b02f","67b62c430b9240ccd8986e70","67b6336e8497d49dcd745411","4","11228.599999997765","","","{""mcAnswer"":""C""}","","","Find the exact answer: 110 + 70","[""18"",""81"",""180"",""810""]","C","C","modiste","","C","270","algLinUCB_0.9","diff-topics","elementary_mathematics","The following are multiple choice questions about high_school_mathematics.
Colton and his dad bought a gallon of paint that cost $13. They also bought 2 brushes that cost $9 each. What was the total cost, not including tax, of the brushes and the paint they bought?
(A) $22, (B) $24, (C) $31, (D) $35
Answer: C
Solve for y. y – 2 + 3y = 10
(A) 2, (B) 3, (C) 4, (D) 5
Answer: B
Solve 3 over 2 * w = 66.
(A) 33, (B) 44, (C) 88, (D) 99
Answer: B
Write 5.875 as a mixed number or fraction in simplest form.
(A) 5 and 8 over 9, (B) 5 and 7 over 8, (C) 7 over 8, (D) 5 and 87 over 105
Answer: B
Solve the equation 124 = m + 34.
(A) 158, (B) 90, (C) 88, (D) 4,216
Answer: B
Zelma buys p pounds of bananas for 40 cents per pound. She pays the clerk with a twenty-dollar bill. The clerk subtracts the total cost of the bananas from the twenty-dollar bill to determine the amount of change to give Zelma. Which expression represents the amount of change Zelma should receive?
(A) p - 20, (B) 20 - 40p, (C) 20 - 0.40p, (D) 0.40p - 20
Answer: C
Please answer the following question with just the correct option (A, B, C, or D) without any explanation or additional text.
Find the exact answer: 110 + 70
(A) '18', (B) '81', (C) '180', (D) '810'
Answer:","","","","","","","","","","","","","","","","","","","","","",""
"","","","","","","","","","","","","","","","","","","","","","","","","","","","C","","","","","","","","","","","","","","","","","","","","",""
"","","","","","","","","","","","","","","","","","","","","","","","","","","","","false","154","-1","C","true","true","defer","[]","false","0","false","0","{""elementary_mathematics"":[""40/50"",""33/52"",""8/10""],""high_school_mathematics"":[""27/50"",""22/50"",""3 / 5""],""college_mathematics"":[""22/50"",""26/50"",""2 / 5""]}","{""elementary_mathematics"":false}","You should outsource this problem to a human agent","null","null","null","false","null",""
"image-keyboard-response","25","629342","0.0-4.0-2.6","2v9gx65uv0feq2t","5a8b61fcf1408d000176b02f","67b62c430b9240ccd8986e70","67b6336e8497d49dcd745411","4","null","","","null","","","Find the exact answer: 110 + 70","[""18"",""81"",""180"",""810""]","C","C","modiste","","C","270","algLinUCB_0.9","diff-topics","elementary_mathematics","The following are multiple choice questions about high_school_mathematics.
Colton and his dad bought a gallon of paint that cost $13. They also bought 2 brushes that cost $9 each. What was the total cost, not including tax, of the brushes and the paint they bought?
(A) $22, (B) $24, (C) $31, (D) $35
Answer: C
Solve for y. y – 2 + 3y = 10
(A) 2, (B) 3, (C) 4, (D) 5
Answer: B
Solve 3 over 2 * w = 66.
(A) 33, (B) 44, (C) 88, (D) 99
Answer: B
Write 5.875 as a mixed number or fraction in simplest form.
(A) 5 and 8 over 9, (B) 5 and 7 over 8, (C) 7 over 8, (D) 5 and 87 over 105
Answer: B
Solve the equation 124 = m + 34.
(A) 158, (B) 90, (C) 88, (D) 4,216
Answer: B
Zelma buys p pounds of bananas for 40 cents per pound. She pays the clerk with a twenty-dollar bill. The clerk subtracts the total cost of the bananas from the twenty-dollar bill to determine the amount of change to give Zelma. Which expression represents the amount of change Zelma should receive?
(A) p - 20, (B) 20 - 40p, (C) 20 - 0.40p, (D) 0.40p - 20
Answer: C
Please answer the following question with just the correct option (A, B, C, or D) without any explanation or additional text.
Find the exact answer: 110 + 70
(A) '18', (B) '81', (C) '180', (D) '810'
Answer:","","","","","","","","","","","","","","","","","","","","","","feedback_imgs/Correct.png"
"call-function","26","629343","0.0-4.0-0.7","2v9gx65uv0feq2t","5a8b61fcf1408d000176b02f","67b62c430b9240ccd8986e70","67b6336e8497d49dcd745411","4","","","","","","defer","Let f(x) be a function whose graph passes through the origin. If f(2n) = n^2 + f[2(n - 1)] for every integer n, what is the value of f(8)?","[""24"",""30"",""32"",""36""]","C","B","modiste","","B","281","algLinUCB_0.9","diff-topics","college_mathematics","The following are multiple choice questions about high_school_mathematics.
Colton and his dad bought a gallon of paint that cost $13. They also bought 2 brushes that cost $9 each. What was the total cost, not including tax, of the brushes and the paint they bought?
(A) $22, (B) $24, (C) $31, (D) $35
Answer: C
Solve for y. y – 2 + 3y = 10
(A) 2, (B) 3, (C) 4, (D) 5
Answer: B
Solve 3 over 2 * w = 66.
(A) 33, (B) 44, (C) 88, (D) 99
Answer: B
Write 5.875 as a mixed number or fraction in simplest form.
(A) 5 and 8 over 9, (B) 5 and 7 over 8, (C) 7 over 8, (D) 5 and 87 over 105
Answer: B
Solve the equation 124 = m + 34.
(A) 158, (B) 90, (C) 88, (D) 4,216
Answer: B
Zelma buys p pounds of bananas for 40 cents per pound. She pays the clerk with a twenty-dollar bill. The clerk subtracts the total cost of the bananas from the twenty-dollar bill to determine the amount of change to give Zelma. Which expression represents the amount of change Zelma should receive?
(A) p - 20, (B) 20 - 40p, (C) 20 - 0.40p, (D) 0.40p - 20
Answer: C
Please answer the following question with just the correct option (A, B, C, or D) without any explanation or additional text.
Let f(x) be a function whose graph passes through the origin. If f(2n) = n^2 + f[2(n - 1)] for every integer n, what is the value of f(8)?
(A) '24', (B) '30', (C) '32', (D) '36'
Answer:","","","","","","","","","","","","true","2","","","","","","","","",""
"survey-html-form","27","648112","0.0-4.0-1.7","2v9gx65uv0feq2t","5a8b61fcf1408d000176b02f","67b62c430b9240ccd8986e70","67b6336e8497d49dcd745411","4","18759.199999999255","","","{""mcAnswer"":""C""}","","","Let f(x) be a function whose graph passes through the origin. If f(2n) = n^2 + f[2(n - 1)] for every integer n, what is the value of f(8)?","[""24"",""30"",""32"",""36""]","C","B","modiste","","B","281","algLinUCB_0.9","diff-topics","college_mathematics","The following are multiple choice questions about high_school_mathematics.
Colton and his dad bought a gallon of paint that cost $13. They also bought 2 brushes that cost $9 each. What was the total cost, not including tax, of the brushes and the paint they bought?
(A) $22, (B) $24, (C) $31, (D) $35
Answer: C
Solve for y. y – 2 + 3y = 10
(A) 2, (B) 3, (C) 4, (D) 5
Answer: B
Solve 3 over 2 * w = 66.
(A) 33, (B) 44, (C) 88, (D) 99
Answer: B
Write 5.875 as a mixed number or fraction in simplest form.
(A) 5 and 8 over 9, (B) 5 and 7 over 8, (C) 7 over 8, (D) 5 and 87 over 105
Answer: B
Solve the equation 124 = m + 34.
(A) 158, (B) 90, (C) 88, (D) 4,216
Answer: B
Zelma buys p pounds of bananas for 40 cents per pound. She pays the clerk with a twenty-dollar bill. The clerk subtracts the total cost of the bananas from the twenty-dollar bill to determine the amount of change to give Zelma. Which expression represents the amount of change Zelma should receive?
(A) p - 20, (B) 20 - 40p, (C) 20 - 0.40p, (D) 0.40p - 20
Answer: C
Please answer the following question with just the correct option (A, B, C, or D) without any explanation or additional text.
Let f(x) be a function whose graph passes through the origin. If f(2n) = n^2 + f[2(n - 1)] for every integer n, what is the value of f(8)?
(A) '24', (B) '30', (C) '32', (D) '36'
Answer:","","","","","","","","","","","","","","","","","","","","","",""
"","","","","","","","","","","","","","","","","","","","","","","","","","","","C","","","","","","","","","","","","","","","","","","","","",""
"","","","","","","","","","","","","","","","","","","","","","","","","","","","","false","151","-1","C","false","false","defer","[]","false","0","true","2","{""elementary_mathematics"":[""40/50"",""33/52"",""8/10""],""high_school_mathematics"":[""27/50"",""22/50"",""3 / 5""],""college_mathematics"":[""22/50"",""26/51"",""2 / 5""]}","{""elementary_mathematics"":false,""college_mathematics"":false}","You should outsource this problem to the AI agent","false","null","true","null","null",""
"image-keyboard-response","28","649620","0.0-4.0-2.7","2v9gx65uv0feq2t","5a8b61fcf1408d000176b02f","67b62c430b9240ccd8986e70","67b6336e8497d49dcd745411","4","null","","","null","","","Let f(x) be a function whose graph passes through the origin. If f(2n) = n^2 + f[2(n - 1)] for every integer n, what is the value of f(8)?","[""24"",""30"",""32"",""36""]","C","B","modiste","","B","281","algLinUCB_0.9","diff-topics","college_mathematics","The following are multiple choice questions about high_school_mathematics.
Colton and his dad bought a gallon of paint that cost $13. They also bought 2 brushes that cost $9 each. What was the total cost, not including tax, of the brushes and the paint they bought?
(A) $22, (B) $24, (C) $31, (D) $35
Answer: C
Solve for y. y – 2 + 3y = 10
(A) 2, (B) 3, (C) 4, (D) 5
Answer: B
Solve 3 over 2 * w = 66.
(A) 33, (B) 44, (C) 88, (D) 99
Answer: B
Write 5.875 as a mixed number or fraction in simplest form.
(A) 5 and 8 over 9, (B) 5 and 7 over 8, (C) 7 over 8, (D) 5 and 87 over 105
Answer: B
Solve the equation 124 = m + 34.
(A) 158, (B) 90, (C) 88, (D) 4,216
Answer: B
Zelma buys p pounds of bananas for 40 cents per pound. She pays the clerk with a twenty-dollar bill. The clerk subtracts the total cost of the bananas from the twenty-dollar bill to determine the amount of change to give Zelma. Which expression represents the amount of change Zelma should receive?
(A) p - 20, (B) 20 - 40p, (C) 20 - 0.40p, (D) 0.40p - 20
Answer: C
Please answer the following question with just the correct option (A, B, C, or D) without any explanation or additional text.
Let f(x) be a function whose graph passes through the origin. If f(2n) = n^2 + f[2(n - 1)] for every integer n, what is the value of f(8)?
(A) '24', (B) '30', (C) '32', (D) '36'
Answer:","","","","","","","","","","","","","","","","","","","","","","feedback_imgs/Incorrect.png"
"call-function","29","649621","0.0-4.0-0.8","2v9gx65uv0feq2t","5a8b61fcf1408d000176b02f","67b62c430b9240ccd8986e70","67b6336e8497d49dcd745411","4","","","","","","defer","Given that a and b are real numbers such that -3leq aleq1 and -2leq bleq 4, and values for a and b are chosen at random, what is the probability that the product acdot b is positive? Express your answer as a common fraction.","[""5/12"",""5/11"",""7/12"",""5/17""]","A","A","modiste","","A","259","algLinUCB_0.9","diff-topics","high_school_mathematics","The following are multiple choice questions about high_school_mathematics.
Colton and his dad bought a gallon of paint that cost $13. They also bought 2 brushes that cost $9 each. What was the total cost, not including tax, of the brushes and the paint they bought?
(A) $22, (B) $24, (C) $31, (D) $35
Answer: C
Solve for y. y – 2 + 3y = 10
(A) 2, (B) 3, (C) 4, (D) 5
Answer: B
Solve 3 over 2 * w = 66.
(A) 33, (B) 44, (C) 88, (D) 99
Answer: B
Write 5.875 as a mixed number or fraction in simplest form.
(A) 5 and 8 over 9, (B) 5 and 7 over 8, (C) 7 over 8, (D) 5 and 87 over 105
Answer: B
Solve the equation 124 = m + 34.
(A) 158, (B) 90, (C) 88, (D) 4,216
Answer: B
Zelma buys p pounds of bananas for 40 cents per pound. She pays the clerk with a twenty-dollar bill. The clerk subtracts the total cost of the bananas from the twenty-dollar bill to determine the amount of change to give Zelma. Which expression represents the amount of change Zelma should receive?
(A) p - 20, (B) 20 - 40p, (C) 20 - 0.40p, (D) 0.40p - 20
Answer: C
Please answer the following question with just the correct option (A, B, C, or D) without any explanation or additional text.
Given that a and b are real numbers such that -3leq aleq1 and -2leq bleq 4, and values for a and b are chosen at random, what is the probability that the product acdot b is positive? Express your answer as a common fraction.
(A) '5/12', (B) '5/11', (C) '7/12', (D) '5/17'
Answer:","","","","","","","","","","","","true","2","","","","","","","","",""
"survey-html-form","30","707582","0.0-4.0-1.8","2v9gx65uv0feq2t","5a8b61fcf1408d000176b02f","67b62c430b9240ccd8986e70","67b6336e8497d49dcd745411","4","57954.79999999702","","","{""mcAnswer"":""A""}","","","Given that a and b are real numbers such that -3leq aleq1 and -2leq bleq 4, and values for a and b are chosen at random, what is the probability that the product acdot b is positive? Express your answer as a common fraction.","[""5/12"",""5/11"",""7/12"",""5/17""]","A","A","modiste","","A","259","algLinUCB_0.9","diff-topics","high_school_mathematics","The following are multiple choice questions about high_school_mathematics.
Colton and his dad bought a gallon of paint that cost $13. They also bought 2 brushes that cost $9 each. What was the total cost, not including tax, of the brushes and the paint they bought?
(A) $22, (B) $24, (C) $31, (D) $35
Answer: C
Solve for y. y – 2 + 3y = 10
(A) 2, (B) 3, (C) 4, (D) 5
Answer: B
Solve 3 over 2 * w = 66.
(A) 33, (B) 44, (C) 88, (D) 99
Answer: B
Write 5.875 as a mixed number or fraction in simplest form.
(A) 5 and 8 over 9, (B) 5 and 7 over 8, (C) 7 over 8, (D) 5 and 87 over 105
Answer: B
Solve the equation 124 = m + 34.
(A) 158, (B) 90, (C) 88, (D) 4,216
Answer: B
Zelma buys p pounds of bananas for 40 cents per pound. She pays the clerk with a twenty-dollar bill. The clerk subtracts the total cost of the bananas from the twenty-dollar bill to determine the amount of change to give Zelma. Which expression represents the amount of change Zelma should receive?
(A) p - 20, (B) 20 - 40p, (C) 20 - 0.40p, (D) 0.40p - 20
Answer: C
Please answer the following question with just the correct option (A, B, C, or D) without any explanation or additional text.
Given that a and b are real numbers such that -3leq aleq1 and -2leq bleq 4, and values for a and b are chosen at random, what is the probability that the product acdot b is positive? Express your answer as a common fraction.
(A) '5/12', (B) '5/11', (C) '7/12', (D) '5/17'
Answer:","","","","","","","","","","","","","","","","","","","","","",""
"","","","","","","","","","","","","","","","","","","","","","","","","","","","A","","","","","","","","","","","","","","","","","","","","",""
"","","","","","","","","","","","","","","","","","","","","","","","","","","","","false","158","-1","A","true","true","defer","[]","false","0","true","2","{""elementary_mathematics"":[""40/50"",""33/52"",""8/10""],""high_school_mathematics"":[""27/50"",""23/51"",""3 / 5""],""college_mathematics"":[""22/50"",""26/51"",""2 / 5""]}","{""elementary_mathematics"":false,""college_mathematics"":false,""high_school_mathematics"":false}","You should attempt this problem by yourself","false","null","null","null","false",""
"image-keyboard-response","31","709088","0.0-4.0-2.8","2v9gx65uv0feq2t","5a8b61fcf1408d000176b02f","67b62c430b9240ccd8986e70","67b6336e8497d49dcd745411","4","null","","","null","","","Given that a and b are real numbers such that -3leq aleq1 and -2leq bleq 4, and values for a and b are chosen at random, what is the probability that the product acdot b is positive? Express your answer as a common fraction.","[""5/12"",""5/11"",""7/12"",""5/17""]","A","A","modiste","","A","259","algLinUCB_0.9","diff-topics","high_school_mathematics","The following are multiple choice questions about high_school_mathematics.
Colton and his dad bought a gallon of paint that cost $13. They also bought 2 brushes that cost $9 each. What was the total cost, not including tax, of the brushes and the paint they bought?
(A) $22, (B) $24, (C) $31, (D) $35
Answer: C
Solve for y. y – 2 + 3y = 10
(A) 2, (B) 3, (C) 4, (D) 5
Answer: B
Solve 3 over 2 * w = 66.
(A) 33, (B) 44, (C) 88, (D) 99
Answer: B
Write 5.875 as a mixed number or fraction in simplest form.
(A) 5 and 8 over 9, (B) 5 and 7 over 8, (C) 7 over 8, (D) 5 and 87 over 105
Answer: B
Solve the equation 124 = m + 34.
(A) 158, (B) 90, (C) 88, (D) 4,216
Answer: B
Zelma buys p pounds of bananas for 40 cents per pound. She pays the clerk with a twenty-dollar bill. The clerk subtracts the total cost of the bananas from the twenty-dollar bill to determine the amount of change to give Zelma. Which expression represents the amount of change Zelma should receive?
(A) p - 20, (B) 20 - 40p, (C) 20 - 0.40p, (D) 0.40p - 20
Answer: C
Please answer the following question with just the correct option (A, B, C, or D) without any explanation or additional text.
Given that a and b are real numbers such that -3leq aleq1 and -2leq bleq 4, and values for a and b are chosen at random, what is the probability that the product acdot b is positive? Express your answer as a common fraction.
(A) '5/12', (B) '5/11', (C) '7/12', (D) '5/17'
Answer:","","","","","","","","","","","","","","","","","","","","","","feedback_imgs/Correct.png"
"call-function","32","709089","0.0-4.0-0.9","2v9gx65uv0feq2t","5a8b61fcf1408d000176b02f","67b62c430b9240ccd8986e70","67b6336e8497d49dcd745411","4","","","","","","defer","Define f(x)=1+x/1-x and g(x)=-2/x+1. Find the value of [g(f(g(f(dotsb g(f(12)) dotsb ))))] where the function f is applied 8 times, and the function g is applied 8 times, alternating between the two.","[""12"",""8"",""4"",""0""]","A","A","modiste","","C","254","algLinUCB_0.9","diff-topics","high_school_mathematics","The following are multiple choice questions about high_school_mathematics.
Colton and his dad bought a gallon of paint that cost $13. They also bought 2 brushes that cost $9 each. What was the total cost, not including tax, of the brushes and the paint they bought?
(A) $22, (B) $24, (C) $31, (D) $35
Answer: C
Solve for y. y – 2 + 3y = 10
(A) 2, (B) 3, (C) 4, (D) 5
Answer: B
Solve 3 over 2 * w = 66.
(A) 33, (B) 44, (C) 88, (D) 99
Answer: B
Write 5.875 as a mixed number or fraction in simplest form.
(A) 5 and 8 over 9, (B) 5 and 7 over 8, (C) 7 over 8, (D) 5 and 87 over 105
Answer: B
Solve the equation 124 = m + 34.
(A) 158, (B) 90, (C) 88, (D) 4,216
Answer: B
Zelma buys p pounds of bananas for 40 cents per pound. She pays the clerk with a twenty-dollar bill. The clerk subtracts the total cost of the bananas from the twenty-dollar bill to determine the amount of change to give Zelma. Which expression represents the amount of change Zelma should receive?
(A) p - 20, (B) 20 - 40p, (C) 20 - 0.40p, (D) 0.40p - 20
Answer: C
Please answer the following question with just the correct option (A, B, C, or D) without any explanation or additional text.
Define f(x)=1+x/1-x and g(x)=-2/x+1. Find the value of [g(f(g(f(dotsb g(f(12)) dotsb ))))] where the function f is applied 8 times, and the function g is applied 8 times, alternating between the two.
(A) '12', (B) '8', (C) '4', (D) '0'
Answer:","","","","","","","","","","","","true","2","","","","","","","","",""
"survey-html-form","33","732751","0.0-4.0-1.9","2v9gx65uv0feq2t","5a8b61fcf1408d000176b02f","67b62c430b9240ccd8986e70","67b6336e8497d49dcd745411","4","23652.60000000149","","","{""mcAnswer"":""A""}","","","Define f(x)=1+x/1-x and g(x)=-2/x+1. Find the value of [g(f(g(f(dotsb g(f(12)) dotsb ))))] where the function f is applied 8 times, and the function g is applied 8 times, alternating between the two.","[""12"",""8"",""4"",""0""]","A","A","modiste","","C","254","algLinUCB_0.9","diff-topics","high_school_mathematics","The following are multiple choice questions about high_school_mathematics.
Colton and his dad bought a gallon of paint that cost $13. They also bought 2 brushes that cost $9 each. What was the total cost, not including tax, of the brushes and the paint they bought?
(A) $22, (B) $24, (C) $31, (D) $35
Answer: C
Solve for y. y – 2 + 3y = 10
(A) 2, (B) 3, (C) 4, (D) 5
Answer: B
Solve 3 over 2 * w = 66.
(A) 33, (B) 44, (C) 88, (D) 99
Answer: B
Write 5.875 as a mixed number or fraction in simplest form.
(A) 5 and 8 over 9, (B) 5 and 7 over 8, (C) 7 over 8, (D) 5 and 87 over 105
Answer: B
Solve the equation 124 = m + 34.
(A) 158, (B) 90, (C) 88, (D) 4,216
Answer: B
Zelma buys p pounds of bananas for 40 cents per pound. She pays the clerk with a twenty-dollar bill. The clerk subtracts the total cost of the bananas from the twenty-dollar bill to determine the amount of change to give Zelma. Which expression represents the amount of change Zelma should receive?
(A) p - 20, (B) 20 - 40p, (C) 20 - 0.40p, (D) 0.40p - 20
Answer: C
Please answer the following question with just the correct option (A, B, C, or D) without any explanation or additional text.
Define f(x)=1+x/1-x and g(x)=-2/x+1. Find the value of [g(f(g(f(dotsb g(f(12)) dotsb ))))] where the function f is applied 8 times, and the function g is applied 8 times, alternating between the two.
(A) '12', (B) '8', (C) '4', (D) '0'
Answer:","","","","","","","","","","","","","","","","","","","","","",""
"","","","","","","","","","","","","","","","","","","","","","","","","","","","A","","","","","","","","","","","","","","","","","","","","",""
"","","","","","","","","","","","","","","","","","","","","","","","","","","","","false","155","-1","A","false","false","defer","[]","false","0","true","2","{""elementary_mathematics"":[""40/50"",""33/52"",""8/10""],""high_school_mathematics"":[""27/50"",""23/52"",""3 / 5""],""college_mathematics"":[""22/50"",""26/51"",""2 / 5""]}","{""elementary_mathematics"":false,""college_mathematics"":false,""high_school_mathematics"":false}","You should attempt this problem by yourself","false","null","null","null","false",""
"image-keyboard-response","34","734257","0.0-4.0-2.9","2v9gx65uv0feq2t","5a8b61fcf1408d000176b02f","67b62c430b9240ccd8986e70","67b6336e8497d49dcd745411","4","null","","","null","","","Define f(x)=1+x/1-x and g(x)=-2/x+1. Find the value of [g(f(g(f(dotsb g(f(12)) dotsb ))))] where the function f is applied 8 times, and the function g is applied 8 times, alternating between the two.","[""12"",""8"",""4"",""0""]","A","A","modiste","","C","254","algLinUCB_0.9","diff-topics","high_school_mathematics","The following are multiple choice questions about high_school_mathematics.
Colton and his dad bought a gallon of paint that cost $13. They also bought 2 brushes that cost $9 each. What was the total cost, not including tax, of the brushes and the paint they bought?
(A) $22, (B) $24, (C) $31, (D) $35
Answer: C
Solve for y. y – 2 + 3y = 10
(A) 2, (B) 3, (C) 4, (D) 5
Answer: B
Solve 3 over 2 * w = 66.
(A) 33, (B) 44, (C) 88, (D) 99
Answer: B
Write 5.875 as a mixed number or fraction in simplest form.
(A) 5 and 8 over 9, (B) 5 and 7 over 8, (C) 7 over 8, (D) 5 and 87 over 105
Answer: B
Solve the equation 124 = m + 34.
(A) 158, (B) 90, (C) 88, (D) 4,216
Answer: B
Zelma buys p pounds of bananas for 40 cents per pound. She pays the clerk with a twenty-dollar bill. The clerk subtracts the total cost of the bananas from the twenty-dollar bill to determine the amount of change to give Zelma. Which expression represents the amount of change Zelma should receive?
(A) p - 20, (B) 20 - 40p, (C) 20 - 0.40p, (D) 0.40p - 20
Answer: C
Please answer the following question with just the correct option (A, B, C, or D) without any explanation or additional text.
Define f(x)=1+x/1-x and g(x)=-2/x+1. Find the value of [g(f(g(f(dotsb g(f(12)) dotsb ))))] where the function f is applied 8 times, and the function g is applied 8 times, alternating between the two.
(A) '12', (B) '8', (C) '4', (D) '0'
Answer:","","","","","","","","","","","","","","","","","","","","","","feedback_imgs/Incorrect.png"
"call-function","35","734259","0.0-4.0-0.10","2v9gx65uv0feq2t","5a8b61fcf1408d000176b02f","67b62c430b9240ccd8986e70","67b6336e8497d49dcd745411","4","","","","","","defer","Find -d1/-3cdotc1/~frac{1{-3}~}.","[""1"",""-1"",""0"",""2""]","B","B","modiste","","B","257","algLinUCB_0.9","diff-topics","high_school_mathematics","The following are multiple choice questions about high_school_mathematics.
Colton and his dad bought a gallon of paint that cost $13. They also bought 2 brushes that cost $9 each. What was the total cost, not including tax, of the brushes and the paint they bought?
(A) $22, (B) $24, (C) $31, (D) $35
Answer: C
Solve for y. y – 2 + 3y = 10
(A) 2, (B) 3, (C) 4, (D) 5
Answer: B
Solve 3 over 2 * w = 66.
(A) 33, (B) 44, (C) 88, (D) 99
Answer: B
Write 5.875 as a mixed number or fraction in simplest form.
(A) 5 and 8 over 9, (B) 5 and 7 over 8, (C) 7 over 8, (D) 5 and 87 over 105
Answer: B
Solve the equation 124 = m + 34.
(A) 158, (B) 90, (C) 88, (D) 4,216
Answer: B
Zelma buys p pounds of bananas for 40 cents per pound. She pays the clerk with a twenty-dollar bill. The clerk subtracts the total cost of the bananas from the twenty-dollar bill to determine the amount of change to give Zelma. Which expression represents the amount of change Zelma should receive?
(A) p - 20, (B) 20 - 40p, (C) 20 - 0.40p, (D) 0.40p - 20
Answer: C
Please answer the following question with just the correct option (A, B, C, or D) without any explanation or additional text.
Find -d1/-3cdotc1/~frac{1{-3}~}.
(A) '1', (B) '-1', (C) '0', (D) '2'
Answer:","","","","","","","","","","","","","","","","","","","","","",""
"survey-html-form","36","753331","0.0-4.0-1.10","2v9gx65uv0feq2t","5a8b61fcf1408d000176b02f","67b62c430b9240ccd8986e70","67b6336e8497d49dcd745411","4","19063.599999997765","","","{""mcAnswer"":""B""}","","","Find -d1/-3cdotc1/~frac{1{-3}~}.","[""1"",""-1"",""0"",""2""]","B","B","modiste","","B","257","algLinUCB_0.9","diff-topics","high_school_mathematics","The following are multiple choice questions about high_school_mathematics.
Colton and his dad bought a gallon of paint that cost $13. They also bought 2 brushes that cost $9 each. What was the total cost, not including tax, of the brushes and the paint they bought?
(A) $22, (B) $24, (C) $31, (D) $35
Answer: C
Solve for y. y – 2 + 3y = 10
(A) 2, (B) 3, (C) 4, (D) 5
Answer: B
Solve 3 over 2 * w = 66.
(A) 33, (B) 44, (C) 88, (D) 99
Answer: B
Write 5.875 as a mixed number or fraction in simplest form.
(A) 5 and 8 over 9, (B) 5 and 7 over 8, (C) 7 over 8, (D) 5 and 87 over 105
Answer: B
Solve the equation 124 = m + 34.
(A) 158, (B) 90, (C) 88, (D) 4,216
Answer: B
Zelma buys p pounds of bananas for 40 cents per pound. She pays the clerk with a twenty-dollar bill. The clerk subtracts the total cost of the bananas from the twenty-dollar bill to determine the amount of change to give Zelma. Which expression represents the amount of change Zelma should receive?
(A) p - 20, (B) 20 - 40p, (C) 20 - 0.40p, (D) 0.40p - 20
Answer: C
Please answer the following question with just the correct option (A, B, C, or D) without any explanation or additional text.
Find -d1/-3cdotc1/~frac{1{-3}~}.
(A) '1', (B) '-1', (C) '0', (D) '2'
Answer:","","","","","","","","","","","","","","","","","","","","","",""
"","","","","","","","","","","","","","","","","","","","","","","","","","","","B","","","","","","","","","","","","","","","","","","","","",""
"","","","","","","","","","","","","","","","","","","","","","","","","","","","","false","165","-1","B","true","true","defer","[]","false","0","false","0","{""elementary_mathematics"":[""40/50"",""33/52"",""8/10""],""high_school_mathematics"":[""27/50"",""23/52"",""4/6""],""college_mathematics"":[""22/50"",""26/51"",""2 / 5""]}","{""elementary_mathematics"":false,""college_mathematics"":false,""high_school_mathematics"":false}","You should attempt this problem by yourself","null","null","null","null","true",""
"image-keyboard-response","37","754838","0.0-4.0-2.10","2v9gx65uv0feq2t","5a8b61fcf1408d000176b02f","67b62c430b9240ccd8986e70","67b6336e8497d49dcd745411","4","null","","","null","","","Find -d1/-3cdotc1/~frac{1{-3}~}.","[""1"",""-1"",""0"",""2""]","B","B","modiste","","B","257","algLinUCB_0.9","diff-topics","high_school_mathematics","The following are multiple choice questions about high_school_mathematics.
Colton and his dad bought a gallon of paint that cost $13. They also bought 2 brushes that cost $9 each. What was the total cost, not including tax, of the brushes and the paint they bought?
(A) $22, (B) $24, (C) $31, (D) $35
Answer: C
Solve for y. y – 2 + 3y = 10
(A) 2, (B) 3, (C) 4, (D) 5
Answer: B
Solve 3 over 2 * w = 66.
(A) 33, (B) 44, (C) 88, (D) 99
Answer: B
Write 5.875 as a mixed number or fraction in simplest form.
(A) 5 and 8 over 9, (B) 5 and 7 over 8, (C) 7 over 8, (D) 5 and 87 over 105
Answer: B
Solve the equation 124 = m + 34.
(A) 158, (B) 90, (C) 88, (D) 4,216
Answer: B
Zelma buys p pounds of bananas for 40 cents per pound. She pays the clerk with a twenty-dollar bill. The clerk subtracts the total cost of the bananas from the twenty-dollar bill to determine the amount of change to give Zelma. Which expression represents the amount of change Zelma should receive?
(A) p - 20, (B) 20 - 40p, (C) 20 - 0.40p, (D) 0.40p - 20
Answer: C
Please answer the following question with just the correct option (A, B, C, or D) without any explanation or additional text.
Find -d1/-3cdotc1/~frac{1{-3}~}.
(A) '1', (B) '-1', (C) '0', (D) '2'
Answer:","","","","","","","","","","","","","","","","","","","","","","feedback_imgs/Correct.png"
"call-function","38","754838","0.0-4.0-0.11","2v9gx65uv0feq2t","5a8b61fcf1408d000176b02f","67b62c430b9240ccd8986e70","67b6336e8497d49dcd745411","4","","","","","","defer","What is the greatest common factor of 42 and 84?","[""7"",""21"",""42"",""84""]","B","C","modiste","","C","274","algLinUCB_0.9","diff-topics","elementary_mathematics","The following are multiple choice questions about high_school_mathematics.
Colton and his dad bought a gallon of paint that cost $13. They also bought 2 brushes that cost $9 each. What was the total cost, not including tax, of the brushes and the paint they bought?
(A) $22, (B) $24, (C) $31, (D) $35
Answer: C
Solve for y. y – 2 + 3y = 10
(A) 2, (B) 3, (C) 4, (D) 5
Answer: B
Solve 3 over 2 * w = 66.
(A) 33, (B) 44, (C) 88, (D) 99
Answer: B
Write 5.875 as a mixed number or fraction in simplest form.
(A) 5 and 8 over 9, (B) 5 and 7 over 8, (C) 7 over 8, (D) 5 and 87 over 105
Answer: B
Solve the equation 124 = m + 34.
(A) 158, (B) 90, (C) 88, (D) 4,216
Answer: B
Zelma buys p pounds of bananas for 40 cents per pound. She pays the clerk with a twenty-dollar bill. The clerk subtracts the total cost of the bananas from the twenty-dollar bill to determine the amount of change to give Zelma. Which expression represents the amount of change Zelma should receive?
(A) p - 20, (B) 20 - 40p, (C) 20 - 0.40p, (D) 0.40p - 20
Answer: C
Please answer the following question with just the correct option (A, B, C, or D) without any explanation or additional text.
What is the greatest common factor of 42 and 84?
(A) '7', (B) '21', (C) '42', (D) '84'
Answer:","","","","","","","","","","","","","","","","","","","","","",""
"survey-html-form","39","773675","0.0-4.0-1.11","2v9gx65uv0feq2t","5a8b61fcf1408d000176b02f","67b62c430b9240ccd8986e70","67b6336e8497d49dcd745411","4","18832.199999999255","","","{""mcAnswer"":""C""}","","","What is the greatest common factor of 42 and 84?","[""7"",""21"",""42"",""84""]","B","C","modiste","","C","274","algLinUCB_0.9","diff-topics","elementary_mathematics","The following are multiple choice questions about high_school_mathematics.
Colton and his dad bought a gallon of paint that cost $13. They also bought 2 brushes that cost $9 each. What was the total cost, not including tax, of the brushes and the paint they bought?
(A) $22, (B) $24, (C) $31, (D) $35
Answer: C
Solve for y. y – 2 + 3y = 10
(A) 2, (B) 3, (C) 4, (D) 5
Answer: B
Solve 3 over 2 * w = 66.
(A) 33, (B) 44, (C) 88, (D) 99
Answer: B
Write 5.875 as a mixed number or fraction in simplest form.
(A) 5 and 8 over 9, (B) 5 and 7 over 8, (C) 7 over 8, (D) 5 and 87 over 105
Answer: B
Solve the equation 124 = m + 34.
(A) 158, (B) 90, (C) 88, (D) 4,216
Answer: B
Zelma buys p pounds of bananas for 40 cents per pound. She pays the clerk with a twenty-dollar bill. The clerk subtracts the total cost of the bananas from the twenty-dollar bill to determine the amount of change to give Zelma. Which expression represents the amount of change Zelma should receive?
(A) p - 20, (B) 20 - 40p, (C) 20 - 0.40p, (D) 0.40p - 20
Answer: C
Please answer the following question with just the correct option (A, B, C, or D) without any explanation or additional text.
What is the greatest common factor of 42 and 84?
(A) '7', (B) '21', (C) '42', (D) '84'
Answer:","","","","","","","","","","","","","","","","","","","","","",""
"","","","","","","","","","","","","","","","","","","","","","","","","","","","C","","","","","","","","","","","","","","","","","","","","",""
"","","","","","","","","","","","","","","","","","","","","","","","","","","","","false","175","-1","B","true","false","defer","[]","false","0","false","0","{""elementary_mathematics"":[""40/50"",""33/52"",""9/11""],""high_school_mathematics"":[""27/50"",""23/52"",""4/6""],""college_mathematics"":[""22/50"",""26/51"",""2 / 5""]}","{""elementary_mathematics"":false,""college_mathematics"":false,""high_school_mathematics"":false}","You should attempt this problem by yourself","null","null","null","null","true",""
"image-keyboard-response","40","775181","0.0-4.0-2.11","2v9gx65uv0feq2t","5a8b61fcf1408d000176b02f","67b62c430b9240ccd8986e70","67b6336e8497d49dcd745411","4","null","","","null","","","What is the greatest common factor of 42 and 84?","[""7"",""21"",""42"",""84""]","B","C","modiste","","C","274","algLinUCB_0.9","diff-topics","elementary_mathematics","The following are multiple choice questions about high_school_mathematics.
Colton and his dad bought a gallon of paint that cost $13. They also bought 2 brushes that cost $9 each. What was the total cost, not including tax, of the brushes and the paint they bought?
(A) $22, (B) $24, (C) $31, (D) $35
Answer: C
Solve for y. y – 2 + 3y = 10
(A) 2, (B) 3, (C) 4, (D) 5
Answer: B
Solve 3 over 2 * w = 66.
(A) 33, (B) 44, (C) 88, (D) 99
Answer: B
Write 5.875 as a mixed number or fraction in simplest form.
(A) 5 and 8 over 9, (B) 5 and 7 over 8, (C) 7 over 8, (D) 5 and 87 over 105
Answer: B
Solve the equation 124 = m + 34.
(A) 158, (B) 90, (C) 88, (D) 4,216
Answer: B
Zelma buys p pounds of bananas for 40 cents per pound. She pays the clerk with a twenty-dollar bill. The clerk subtracts the total cost of the bananas from the twenty-dollar bill to determine the amount of change to give Zelma. Which expression represents the amount of change Zelma should receive?
(A) p - 20, (B) 20 - 40p, (C) 20 - 0.40p, (D) 0.40p - 20
Answer: C
Please answer the following question with just the correct option (A, B, C, or D) without any explanation or additional text.
What is the greatest common factor of 42 and 84?
(A) '7', (B) '21', (C) '42', (D) '84'
Answer:","","","","","","","","","","","","","","","","","","","","","","feedback_imgs/Correct.png"
"call-function","41","775182","0.0-4.0-0.12","2v9gx65uv0feq2t","5a8b61fcf1408d000176b02f","67b62c430b9240ccd8986e70","67b6336e8497d49dcd745411","4","","","","","","defer","If A is a subset of the real line R and A contains each rational number, which of the following must be true?","[""If A is open, then A = R."",""If A is closed, then A = R."",""If A is uncountable, then A = R."",""If A is uncountable, then A is open.""]","B","C","modiste","","B","285","algLinUCB_0.9","diff-topics","college_mathematics","The following are multiple choice questions about high_school_mathematics.
Colton and his dad bought a gallon of paint that cost $13. They also bought 2 brushes that cost $9 each. What was the total cost, not including tax, of the brushes and the paint they bought?
(A) $22, (B) $24, (C) $31, (D) $35
Answer: C
Solve for y. y – 2 + 3y = 10
(A) 2, (B) 3, (C) 4, (D) 5
Answer: B
Solve 3 over 2 * w = 66.
(A) 33, (B) 44, (C) 88, (D) 99
Answer: B
Write 5.875 as a mixed number or fraction in simplest form.
(A) 5 and 8 over 9, (B) 5 and 7 over 8, (C) 7 over 8, (D) 5 and 87 over 105
Answer: B
Solve the equation 124 = m + 34.
(A) 158, (B) 90, (C) 88, (D) 4,216
Answer: B
Zelma buys p pounds of bananas for 40 cents per pound. She pays the clerk with a twenty-dollar bill. The clerk subtracts the total cost of the bananas from the twenty-dollar bill to determine the amount of change to give Zelma. Which expression represents the amount of change Zelma should receive?
(A) p - 20, (B) 20 - 40p, (C) 20 - 0.40p, (D) 0.40p - 20
Answer: C
Please answer the following question with just the correct option (A, B, C, or D) without any explanation or additional text.
If A is a subset of the real line R and A contains each rational number, which of the following must be true?
(A) 'If A is open, then A = R.', (B) 'If A is closed, then A = R.', (C) 'If A is uncountable, then A = R.', (D) 'If A is uncountable, then A is open.'
Answer:","","","","","","","","","","","","true","2","","","","","","","","",""
"survey-html-form","42","819505","0.0-4.0-1.12","2v9gx65uv0feq2t","5a8b61fcf1408d000176b02f","67b62c430b9240ccd8986e70","67b6336e8497d49dcd745411","4","44314.5","","","{""mcAnswer"":""B""}","","","If A is a subset of the real line R and A contains each rational number, which of the following must be true?","[""If A is open, then A = R."",""If A is closed, then A = R."",""If A is uncountable, then A = R."",""If A is uncountable, then A is open.""]","B","C","modiste","","B","285","algLinUCB_0.9","diff-topics","college_mathematics","The following are multiple choice questions about high_school_mathematics.
Colton and his dad bought a gallon of paint that cost $13. They also bought 2 brushes that cost $9 each. What was the total cost, not including tax, of the brushes and the paint they bought?
(A) $22, (B) $24, (C) $31, (D) $35
Answer: C
Solve for y. y – 2 + 3y = 10
(A) 2, (B) 3, (C) 4, (D) 5
Answer: B
Solve 3 over 2 * w = 66.
(A) 33, (B) 44, (C) 88, (D) 99
Answer: B
Write 5.875 as a mixed number or fraction in simplest form.
(A) 5 and 8 over 9, (B) 5 and 7 over 8, (C) 7 over 8, (D) 5 and 87 over 105
Answer: B
Solve the equation 124 = m + 34.
(A) 158, (B) 90, (C) 88, (D) 4,216
Answer: B
Zelma buys p pounds of bananas for 40 cents per pound. She pays the clerk with a twenty-dollar bill. The clerk subtracts the total cost of the bananas from the twenty-dollar bill to determine the amount of change to give Zelma. Which expression represents the amount of change Zelma should receive?
(A) p - 20, (B) 20 - 40p, (C) 20 - 0.40p, (D) 0.40p - 20
Answer: C
Please answer the following question with just the correct option (A, B, C, or D) without any explanation or additional text.
If A is a subset of the real line R and A contains each rational number, which of the following must be true?
(A) 'If A is open, then A = R.', (B) 'If A is closed, then A = R.', (C) 'If A is uncountable, then A = R.', (D) 'If A is uncountable, then A is open.'
Answer:","","","","","","","","","","","","","","","","","","","","","",""
"","","","","","","","","","","","","","","","","","","","","","","","","","","","B","","","","","","","","","","","","","","","","","","","","",""
"","","","","","","","","","","","","","","","","","","","","","","","","","","","","false","182","-1","B","true","true","defer","[]","false","0","true","2","{""elementary_mathematics"":[""40/50"",""33/52"",""9/11""],""high_school_mathematics"":[""27/50"",""23/52"",""4/6""],""college_mathematics"":[""22/50"",""27/52"",""2 / 5""]}","{""elementary_mathematics"":false,""college_mathematics"":false,""high_school_mathematics"":false}","You should outsource this problem to the AI agent","false","null","true","null","null",""
"image-keyboard-response","43","821008","0.0-4.0-2.12","2v9gx65uv0feq2t","5a8b61fcf1408d000176b02f","67b62c430b9240ccd8986e70","67b6336e8497d49dcd745411","4","null","","","null","","","If A is a subset of the real line R and A contains each rational number, which of the following must be true?","[""If A is open, then A = R."",""If A is closed, then A = R."",""If A is uncountable, then A = R."",""If A is uncountable, then A is open.""]","B","C","modiste","","B","285","algLinUCB_0.9","diff-topics","college_mathematics","The following are multiple choice questions about high_school_mathematics.
Colton and his dad bought a gallon of paint that cost $13. They also bought 2 brushes that cost $9 each. What was the total cost, not including tax, of the brushes and the paint they bought?
(A) $22, (B) $24, (C) $31, (D) $35
Answer: C
Solve for y. y – 2 + 3y = 10
(A) 2, (B) 3, (C) 4, (D) 5
Answer: B
Solve 3 over 2 * w = 66.
(A) 33, (B) 44, (C) 88, (D) 99
Answer: B
Write 5.875 as a mixed number or fraction in simplest form.
(A) 5 and 8 over 9, (B) 5 and 7 over 8, (C) 7 over 8, (D) 5 and 87 over 105
Answer: B
Solve the equation 124 = m + 34.
(A) 158, (B) 90, (C) 88, (D) 4,216
Answer: B
Zelma buys p pounds of bananas for 40 cents per pound. She pays the clerk with a twenty-dollar bill. The clerk subtracts the total cost of the bananas from the twenty-dollar bill to determine the amount of change to give Zelma. Which expression represents the amount of change Zelma should receive?
(A) p - 20, (B) 20 - 40p, (C) 20 - 0.40p, (D) 0.40p - 20
Answer: C
Please answer the following question with just the correct option (A, B, C, or D) without any explanation or additional text.
If A is a subset of the real line R and A contains each rational number, which of the following must be true?
(A) 'If A is open, then A = R.', (B) 'If A is closed, then A = R.', (C) 'If A is uncountable, then A = R.', (D) 'If A is uncountable, then A is open.'
Answer:","","","","","","","","","","","","","","","","","","","","","","feedback_imgs/Correct.png"
"call-function","44","821008","0.0-4.0-0.13","2v9gx65uv0feq2t","5a8b61fcf1408d000176b02f","67b62c430b9240ccd8986e70","67b6336e8497d49dcd745411","4","","","","","","defer","Find the value of 6 • 24 ÷ (8 − 5).","[""48"",""13"",""−13"",""54""]","D","A","modiste","","A","273","algLinUCB_0.9","diff-topics","elementary_mathematics","The following are multiple choice questions about high_school_mathematics.
Colton and his dad bought a gallon of paint that cost $13. They also bought 2 brushes that cost $9 each. What was the total cost, not including tax, of the brushes and the paint they bought?
(A) $22, (B) $24, (C) $31, (D) $35
Answer: C
Solve for y. y – 2 + 3y = 10
(A) 2, (B) 3, (C) 4, (D) 5
Answer: B
Solve 3 over 2 * w = 66.
(A) 33, (B) 44, (C) 88, (D) 99
Answer: B
Write 5.875 as a mixed number or fraction in simplest form.
(A) 5 and 8 over 9, (B) 5 and 7 over 8, (C) 7 over 8, (D) 5 and 87 over 105
Answer: B
Solve the equation 124 = m + 34.
(A) 158, (B) 90, (C) 88, (D) 4,216
Answer: B
Zelma buys p pounds of bananas for 40 cents per pound. She pays the clerk with a twenty-dollar bill. The clerk subtracts the total cost of the bananas from the twenty-dollar bill to determine the amount of change to give Zelma. Which expression represents the amount of change Zelma should receive?
(A) p - 20, (B) 20 - 40p, (C) 20 - 0.40p, (D) 0.40p - 20
Answer: C
Please answer the following question with just the correct option (A, B, C, or D) without any explanation or additional text.
Find the value of 6 • 24 ÷ (8 − 5).
(A) '48', (B) '13', (C) '−13', (D) '54'
Answer:","","","","","","","","","","","","","","","","","","","","","",""
"survey-html-form","45","854469","0.0-4.0-1.13","2v9gx65uv0feq2t","5a8b61fcf1408d000176b02f","67b62c430b9240ccd8986e70","67b6336e8497d49dcd745411","4","33457.199999999255","","","{""mcAnswer"":""A""}","","","Find the value of 6 • 24 ÷ (8 − 5).","[""48"",""13"",""−13"",""54""]","D","A","modiste","","A","273","algLinUCB_0.9","diff-topics","elementary_mathematics","The following are multiple choice questions about high_school_mathematics.
Colton and his dad bought a gallon of paint that cost $13. They also bought 2 brushes that cost $9 each. What was the total cost, not including tax, of the brushes and the paint they bought?
(A) $22, (B) $24, (C) $31, (D) $35
Answer: C
Solve for y. y – 2 + 3y = 10
(A) 2, (B) 3, (C) 4, (D) 5
Answer: B
Solve 3 over 2 * w = 66.
(A) 33, (B) 44, (C) 88, (D) 99
Answer: B
Write 5.875 as a mixed number or fraction in simplest form.
(A) 5 and 8 over 9, (B) 5 and 7 over 8, (C) 7 over 8, (D) 5 and 87 over 105
Answer: B
Solve the equation 124 = m + 34.
(A) 158, (B) 90, (C) 88, (D) 4,216
Answer: B
Zelma buys p pounds of bananas for 40 cents per pound. She pays the clerk with a twenty-dollar bill. The clerk subtracts the total cost of the bananas from the twenty-dollar bill to determine the amount of change to give Zelma. Which expression represents the amount of change Zelma should receive?
(A) p - 20, (B) 20 - 40p, (C) 20 - 0.40p, (D) 0.40p - 20
Answer: C
Please answer the following question with just the correct option (A, B, C, or D) without any explanation or additional text.
Find the value of 6 • 24 ÷ (8 − 5).
(A) '48', (B) '13', (C) '−13', (D) '54'
Answer:","","","","","","","","","","","","","","","","","","","","","",""
"","","","","","","","","","","","","","","","","","","","","","","","","","","","A","","","","","","","","","","","","","","","","","","","","",""
"","","","","","","","","","","","","","","","","","","","","","","","","","","","","false","192","-1","D","true","false","defer","[]","false","0","false","0","{""elementary_mathematics"":[""40/50"",""33/52"",""10/12""],""high_school_mathematics"":[""27/50"",""23/52"",""4/6""],""college_mathematics"":[""22/50"",""27/52"",""2 / 5""]}","{""elementary_mathematics"":false,""college_mathematics"":false,""high_school_mathematics"":false}","You should attempt this problem by yourself","null","null","null","null","true",""
"image-keyboard-response","46","855975","0.0-4.0-2.13","2v9gx65uv0feq2t","5a8b61fcf1408d000176b02f","67b62c430b9240ccd8986e70","67b6336e8497d49dcd745411","4","null","","","null","","","Find the value of 6 • 24 ÷ (8 − 5).","[""48"",""13"",""−13"",""54""]","D","A","modiste","","A","273","algLinUCB_0.9","diff-topics","elementary_mathematics","The following are multiple choice questions about high_school_mathematics.
Colton and his dad bought a gallon of paint that cost $13. They also bought 2 brushes that cost $9 each. What was the total cost, not including tax, of the brushes and the paint they bought?
(A) $22, (B) $24, (C) $31, (D) $35
Answer: C
Solve for y. y – 2 + 3y = 10
(A) 2, (B) 3, (C) 4, (D) 5
Answer: B
Solve 3 over 2 * w = 66.
(A) 33, (B) 44, (C) 88, (D) 99
Answer: B
Write 5.875 as a mixed number or fraction in simplest form.
(A) 5 and 8 over 9, (B) 5 and 7 over 8, (C) 7 over 8, (D) 5 and 87 over 105
Answer: B
Solve the equation 124 = m + 34.
(A) 158, (B) 90, (C) 88, (D) 4,216
Answer: B
Zelma buys p pounds of bananas for 40 cents per pound. She pays the clerk with a twenty-dollar bill. The clerk subtracts the total cost of the bananas from the twenty-dollar bill to determine the amount of change to give Zelma. Which expression represents the amount of change Zelma should receive?
(A) p - 20, (B) 20 - 40p, (C) 20 - 0.40p, (D) 0.40p - 20
Answer: C
Please answer the following question with just the correct option (A, B, C, or D) without any explanation or additional text.
Find the value of 6 • 24 ÷ (8 − 5).
(A) '48', (B) '13', (C) '−13', (D) '54'
Answer:","","","","","","","","","","","","","","","","","","","","","","feedback_imgs/Correct.png"
"call-function","47","855976","0.0-4.0-0.14","2v9gx65uv0feq2t","5a8b61fcf1408d000176b02f","67b62c430b9240ccd8986e70","67b6336e8497d49dcd745411","4","","","","","","defer","A zoo has 15 toucans and 60 parrots. What is the ratio of the number of toucans to the number of parrots at the zoo?","[""1:04"",""1:05"",""4:01"",""4:05""]","B","A","modiste","","A","271","algLinUCB_0.9","diff-topics","elementary_mathematics","The following are multiple choice questions about high_school_mathematics.
Colton and his dad bought a gallon of paint that cost $13. They also bought 2 brushes that cost $9 each. What was the total cost, not including tax, of the brushes and the paint they bought?
(A) $22, (B) $24, (C) $31, (D) $35
Answer: C
Solve for y. y – 2 + 3y = 10
(A) 2, (B) 3, (C) 4, (D) 5
Answer: B
Solve 3 over 2 * w = 66.
(A) 33, (B) 44, (C) 88, (D) 99
Answer: B
Write 5.875 as a mixed number or fraction in simplest form.
(A) 5 and 8 over 9, (B) 5 and 7 over 8, (C) 7 over 8, (D) 5 and 87 over 105
Answer: B
Solve the equation 124 = m + 34.
(A) 158, (B) 90, (C) 88, (D) 4,216
Answer: B
Zelma buys p pounds of bananas for 40 cents per pound. She pays the clerk with a twenty-dollar bill. The clerk subtracts the total cost of the bananas from the twenty-dollar bill to determine the amount of change to give Zelma. Which expression represents the amount of change Zelma should receive?
(A) p - 20, (B) 20 - 40p, (C) 20 - 0.40p, (D) 0.40p - 20
Answer: C
Please answer the following question with just the correct option (A, B, C, or D) without any explanation or additional text.
A zoo has 15 toucans and 60 parrots. What is the ratio of the number of toucans to the number of parrots at the zoo?
(A) '1:04', (B) '1:05', (C) '4:01', (D) '4:05'
Answer:","","","","","","","","","","","","","","","","","","","","","",""
"survey-html-form","48","895437","0.0-4.0-1.14","2v9gx65uv0feq2t","5a8b61fcf1408d000176b02f","67b62c430b9240ccd8986e70","67b6336e8497d49dcd745411","4","39452.699999999255","","","{""mcAnswer"":""B""}","","","A zoo has 15 toucans and 60 parrots. What is the ratio of the number of toucans to the number of parrots at the zoo?","[""1:04"",""1:05"",""4:01"",""4:05""]","B","A","modiste","","A","271","algLinUCB_0.9","diff-topics","elementary_mathematics","The following are multiple choice questions about high_school_mathematics.
Colton and his dad bought a gallon of paint that cost $13. They also bought 2 brushes that cost $9 each. What was the total cost, not including tax, of the brushes and the paint they bought?
(A) $22, (B) $24, (C) $31, (D) $35
Answer: C
Solve for y. y – 2 + 3y = 10
(A) 2, (B) 3, (C) 4, (D) 5
Answer: B
Solve 3 over 2 * w = 66.
(A) 33, (B) 44, (C) 88, (D) 99
Answer: B
Write 5.875 as a mixed number or fraction in simplest form.
(A) 5 and 8 over 9, (B) 5 and 7 over 8, (C) 7 over 8, (D) 5 and 87 over 105
Answer: B
Solve the equation 124 = m + 34.
(A) 158, (B) 90, (C) 88, (D) 4,216
Answer: B
Zelma buys p pounds of bananas for 40 cents per pound. She pays the clerk with a twenty-dollar bill. The clerk subtracts the total cost of the bananas from the twenty-dollar bill to determine the amount of change to give Zelma. Which expression represents the amount of change Zelma should receive?
(A) p - 20, (B) 20 - 40p, (C) 20 - 0.40p, (D) 0.40p - 20
Answer: C
Please answer the following question with just the correct option (A, B, C, or D) without any explanation or additional text.
A zoo has 15 toucans and 60 parrots. What is the ratio of the number of toucans to the number of parrots at the zoo?
(A) '1:04', (B) '1:05', (C) '4:01', (D) '4:05'
Answer:","","","","","","","","","","","","","","","","","","","","","",""
"","","","","","","","","","","","","","","","","","","","","","","","","","","","B","","","","","","","","","","","","","","","","","","","","",""
"","","","","","","","","","","","","","","","","","","","","","","","","","","","","false","192","-1","B","false","false","defer","[]","false","0","false","0","{""elementary_mathematics"":[""40/50"",""33/52"",""10/13""],""high_school_mathematics"":[""27/50"",""23/52"",""4/6""],""college_mathematics"":[""22/50"",""27/52"",""2 / 5""]}","{""elementary_mathematics"":true,""college_mathematics"":false,""high_school_mathematics"":false}","You should attempt this problem by yourself","null","null","null","null","true",""
"image-keyboard-response","49","896943","0.0-4.0-2.14","2v9gx65uv0feq2t","5a8b61fcf1408d000176b02f","67b62c430b9240ccd8986e70","67b6336e8497d49dcd745411","4","null","","","null","","","A zoo has 15 toucans and 60 parrots. What is the ratio of the number of toucans to the number of parrots at the zoo?","[""1:04"",""1:05"",""4:01"",""4:05""]","B","A","modiste","","A","271","algLinUCB_0.9","diff-topics","elementary_mathematics","The following are multiple choice questions about high_school_mathematics.
Colton and his dad bought a gallon of paint that cost $13. They also bought 2 brushes that cost $9 each. What was the total cost, not including tax, of the brushes and the paint they bought?
(A) $22, (B) $24, (C) $31, (D) $35
Answer: C
Solve for y. y – 2 + 3y = 10
(A) 2, (B) 3, (C) 4, (D) 5
Answer: B
Solve 3 over 2 * w = 66.
(A) 33, (B) 44, (C) 88, (D) 99
Answer: B
Write 5.875 as a mixed number or fraction in simplest form.
(A) 5 and 8 over 9, (B) 5 and 7 over 8, (C) 7 over 8, (D) 5 and 87 over 105
Answer: B
Solve the equation 124 = m + 34.
(A) 158, (B) 90, (C) 88, (D) 4,216
Answer: B
Zelma buys p pounds of bananas for 40 cents per pound. She pays the clerk with a twenty-dollar bill. The clerk subtracts the total cost of the bananas from the twenty-dollar bill to determine the amount of change to give Zelma. Which expression represents the amount of change Zelma should receive?
(A) p - 20, (B) 20 - 40p, (C) 20 - 0.40p, (D) 0.40p - 20
Answer: C
Please answer the following question with just the correct option (A, B, C, or D) without any explanation or additional text.
A zoo has 15 toucans and 60 parrots. What is the ratio of the number of toucans to the number of parrots at the zoo?
(A) '1:04', (B) '1:05', (C) '4:01', (D) '4:05'
Answer:","","","","","","","","","","","","","","","","","","","","","","feedback_imgs/Incorrect.png"
"call-function","50","896944","0.0-4.0-0.15","2v9gx65uv0feq2t","5a8b61fcf1408d000176b02f","67b62c430b9240ccd8986e70","67b6336e8497d49dcd745411","4","","","","","","defer","How many positive numbers x satisfy the equation cos(97x) = x?","[""1"",""15"",""31"",""49""]","D","D","modiste","","C","287","algLinUCB_0.9","diff-topics","college_mathematics","The following are multiple choice questions about high_school_mathematics.
Colton and his dad bought a gallon of paint that cost $13. They also bought 2 brushes that cost $9 each. What was the total cost, not including tax, of the brushes and the paint they bought?
(A) $22, (B) $24, (C) $31, (D) $35
Answer: C
Solve for y. y – 2 + 3y = 10
(A) 2, (B) 3, (C) 4, (D) 5
Answer: B
Solve 3 over 2 * w = 66.
(A) 33, (B) 44, (C) 88, (D) 99
Answer: B
Write 5.875 as a mixed number or fraction in simplest form.
(A) 5 and 8 over 9, (B) 5 and 7 over 8, (C) 7 over 8, (D) 5 and 87 over 105
Answer: B
Solve the equation 124 = m + 34.
(A) 158, (B) 90, (C) 88, (D) 4,216
Answer: B
Zelma buys p pounds of bananas for 40 cents per pound. She pays the clerk with a twenty-dollar bill. The clerk subtracts the total cost of the bananas from the twenty-dollar bill to determine the amount of change to give Zelma. Which expression represents the amount of change Zelma should receive?
(A) p - 20, (B) 20 - 40p, (C) 20 - 0.40p, (D) 0.40p - 20
Answer: C
Please answer the following question with just the correct option (A, B, C, or D) without any explanation or additional text.
How many positive numbers x satisfy the equation cos(97x) = x?
(A) '1', (B) '15', (C) '31', (D) '49'
Answer:","","","","","","","","","","","","true","2","","","","","","","","",""
"survey-html-form","51","915377","0.0-4.0-1.15","2v9gx65uv0feq2t","5a8b61fcf1408d000176b02f","67b62c430b9240ccd8986e70","67b6336e8497d49dcd745411","4","18429.79999999702","","","{""mcAnswer"":""D""}","","","How many positive numbers x satisfy the equation cos(97x) = x?","[""1"",""15"",""31"",""49""]","D","D","modiste","","C","287","algLinUCB_0.9","diff-topics","college_mathematics","The following are multiple choice questions about high_school_mathematics.
Colton and his dad bought a gallon of paint that cost $13. They also bought 2 brushes that cost $9 each. What was the total cost, not including tax, of the brushes and the paint they bought?
(A) $22, (B) $24, (C) $31, (D) $35
Answer: C
Solve for y. y – 2 + 3y = 10
(A) 2, (B) 3, (C) 4, (D) 5
Answer: B
Solve 3 over 2 * w = 66.
(A) 33, (B) 44, (C) 88, (D) 99
Answer: B
Write 5.875 as a mixed number or fraction in simplest form.
(A) 5 and 8 over 9, (B) 5 and 7 over 8, (C) 7 over 8, (D) 5 and 87 over 105
Answer: B
Solve the equation 124 = m + 34.
(A) 158, (B) 90, (C) 88, (D) 4,216
Answer: B
Zelma buys p pounds of bananas for 40 cents per pound. She pays the clerk with a twenty-dollar bill. The clerk subtracts the total cost of the bananas from the twenty-dollar bill to determine the amount of change to give Zelma. Which expression represents the amount of change Zelma should receive?
(A) p - 20, (B) 20 - 40p, (C) 20 - 0.40p, (D) 0.40p - 20
Answer: C
Please answer the following question with just the correct option (A, B, C, or D) without any explanation or additional text.
How many positive numbers x satisfy the equation cos(97x) = x?
(A) '1', (B) '15', (C) '31', (D) '49'
Answer:","","","","","","","","","","","","","","","","","","","","","",""
"","","","","","","","","","","","","","","","","","","","","","","","","","","","D","","","","","","","","","","","","","","","","","","","","",""
"","","","","","","","","","","","","","","","","","","","","","","","","","","","","false","189","-1","D","false","false","defer","[]","false","0","true","2","{""elementary_mathematics"":[""40/50"",""33/52"",""10/13""],""high_school_mathematics"":[""27/50"",""23/52"",""4/6""],""college_mathematics"":[""22/50"",""27/53"",""2 / 5""]}","{""elementary_mathematics"":true,""college_mathematics"":false,""high_school_mathematics"":false}","You should outsource this problem to the AI agent","false","null","true","null","null",""
"image-keyboard-response","52","916883","0.0-4.0-2.15","2v9gx65uv0feq2t","5a8b61fcf1408d000176b02f","67b62c430b9240ccd8986e70","67b6336e8497d49dcd745411","4","null","","","null","","","How many positive numbers x satisfy the equation cos(97x) = x?","[""1"",""15"",""31"",""49""]","D","D","modiste","","C","287","algLinUCB_0.9","diff-topics","college_mathematics","The following are multiple choice questions about high_school_mathematics.
