"trial_type","trial_index","time_elapsed","internal_node_id","subject","prolific_id","study_id","session_id","condition","rt","url","view_history","response","question_order","value","question","options","llm_answer","population_answer","task","subj_id","label","example_id","variant","main_variant","topic","prompt","0","btn_clicked","score","timeToClick","modelPred","humanCorrect","modelCorrect","interfaceType","modelPredDist","human_support_used","human_support_clicks","llm_support_used","llm_support_clicks","recommendation_lists","incorrect_answers_by_category","recommendation","LLM_outsourcing_overridden","human_outsourcing_overridden","ai_orch_agreement","human_orch_agreement","self_orch_agreement","stimulus"
"pavlovia","0","1015","0.0-0.0","l53jgehrslhjz1h","5b16d24d388d8b00014fa6e6","67b62c430b9240ccd8986e70","67b631b38ff53dc7318c2ce0","0","","","","","","","","","","","","","","","","","","","","","","","","","","","","","","","","","","","","","","","",""
"external-html","1","2643431","0.0-1.0","l53jgehrslhjz1h","5b16d24d388d8b00014fa6e6","67b62c430b9240ccd8986e70","67b631b38ff53dc7318c2ce0","0","2642293.5","consent.html","","","","","","","","","","","","","","","","","","","","","","","","","","","","","","","","","","","","","",""
"instructions","2","3909728","0.0-2.0-0.0","l53jgehrslhjz1h","5b16d24d388d8b00014fa6e6","67b62c430b9240ccd8986e70","67b631b38ff53dc7318c2ce0","0","1266299.400000006","","[{""page_index"":0,""viewing_time"":245978.70000001788},{""page_index"":1,""viewing_time"":2364.7999999821186},{""page_index"":2,""viewing_time"":4094.5},{""page_index"":3,""viewing_time"":1004274.7000000179},{""page_index"":4,""viewing_time"":2588},{""page_index"":5,""viewing_time"":4715.799999982119},{""page_index"":6,""viewing_time"":1236},{""page_index"":7,""viewing_time"":1045.9000000059605}]","","","","","","","","","","","","","","","","","","","","","","","","","","","","","","","","","","","","",""
"survey-multi-choice","3","3917433","0.0-2.0-1.0","l53jgehrslhjz1h","5b16d24d388d8b00014fa6e6","67b62c430b9240ccd8986e70","67b631b38ff53dc7318c2ce0","0","7701.4000000059605","","","{""Q0"":""The answer to a mutliple choice question."",""Q1"":""Clicking on a radio button.""}","[0,1]","","","","","","","","","","","","","","","","","","","","","","","","","","","","","","","","","","",""
"instructions","4","3923069","0.0-3.0","l53jgehrslhjz1h","5b16d24d388d8b00014fa6e6","67b62c430b9240ccd8986e70","67b631b38ff53dc7318c2ce0","0","5635.199999988079","","[{""page_index"":0,""viewing_time"":5634.9000000059605}]","","","","","","","","","","","","","","","","","","","","","","","","","","","","","","","","","","","","",""
"call-function","5","3923071","0.0-4.0-0.0","l53jgehrslhjz1h","5b16d24d388d8b00014fa6e6","67b62c430b9240ccd8986e70","67b631b38ff53dc7318c2ce0","0","","","","","","defer","What is the value of p in 24 = 2p?","[""p = 4"",""p = 8"",""p = 12"",""p = 24""]","B","C","modiste","","C","20","algLinUCB_0.9","diff-topics","elementary_mathematics","The following are multiple choice questions about high_school_mathematics.
Colton and his dad bought a gallon of paint that cost $13. They also bought 2 brushes that cost $9 each. What was the total cost, not including tax, of the brushes and the paint they bought?
(A) $22, (B) $24, (C) $31, (D) $35
Answer: C
Solve for y. y – 2 + 3y = 10
(A) 2, (B) 3, (C) 4, (D) 5
Answer: B
Solve 3 over 2 * w = 66.
(A) 33, (B) 44, (C) 88, (D) 99
Answer: B
Write 5.875 as a mixed number or fraction in simplest form.
(A) 5 and 8 over 9, (B) 5 and 7 over 8, (C) 7 over 8, (D) 5 and 87 over 105
Answer: B
Solve the equation 124 = m + 34.
(A) 158, (B) 90, (C) 88, (D) 4,216
Answer: B
Zelma buys p pounds of bananas for 40 cents per pound. She pays the clerk with a twenty-dollar bill. The clerk subtracts the total cost of the bananas from the twenty-dollar bill to determine the amount of change to give Zelma. Which expression represents the amount of change Zelma should receive?
(A) p - 20, (B) 20 - 40p, (C) 20 - 0.40p, (D) 0.40p - 20
Answer: C
Please answer the following question with just the correct option (A, B, C, or D) without any explanation or additional text.
What is the value of p in 24 = 2p?
(A) 'p = 4', (B) 'p = 8', (C) 'p = 12', (D) 'p = 24'
Answer:","","","","","","","","","","","","","","","","","","","","","",""
"survey-html-form","6","3934255","0.0-4.0-1.0","l53jgehrslhjz1h","5b16d24d388d8b00014fa6e6","67b62c430b9240ccd8986e70","67b631b38ff53dc7318c2ce0","0","11180","","","{""mcAnswer"":""C""}","","","What is the value of p in 24 = 2p?","[""p = 4"",""p = 8"",""p = 12"",""p = 24""]","B","C","modiste","","C","20","algLinUCB_0.9","diff-topics","elementary_mathematics","The following are multiple choice questions about high_school_mathematics.
Colton and his dad bought a gallon of paint that cost $13. They also bought 2 brushes that cost $9 each. What was the total cost, not including tax, of the brushes and the paint they bought?
(A) $22, (B) $24, (C) $31, (D) $35
Answer: C
Solve for y. y – 2 + 3y = 10
(A) 2, (B) 3, (C) 4, (D) 5
Answer: B
Solve 3 over 2 * w = 66.
(A) 33, (B) 44, (C) 88, (D) 99
Answer: B
Write 5.875 as a mixed number or fraction in simplest form.
(A) 5 and 8 over 9, (B) 5 and 7 over 8, (C) 7 over 8, (D) 5 and 87 over 105
Answer: B
Solve the equation 124 = m + 34.
(A) 158, (B) 90, (C) 88, (D) 4,216
Answer: B
Zelma buys p pounds of bananas for 40 cents per pound. She pays the clerk with a twenty-dollar bill. The clerk subtracts the total cost of the bananas from the twenty-dollar bill to determine the amount of change to give Zelma. Which expression represents the amount of change Zelma should receive?
(A) p - 20, (B) 20 - 40p, (C) 20 - 0.40p, (D) 0.40p - 20
Answer: C
Please answer the following question with just the correct option (A, B, C, or D) without any explanation or additional text.
What is the value of p in 24 = 2p?
(A) 'p = 4', (B) 'p = 8', (C) 'p = 12', (D) 'p = 24'
Answer:","","","","","","","","","","","","","","","","","","","","","",""
"","","","","","","","","","","","","","","","","","","","","","","","","","","","C","","","","","","","","","","","","","","","","","","","","",""
"","","","","","","","","","","","","","","","","","","","","","","","","","","","","false","110","-1","B","true","false","defer","[]","false","0","false","0","{""elementary_mathematics"":[""40/50"",""31/50"",""5/6""],""high_school_mathematics"":[""27/50"",""22/50"",""3 / 5""],""college_mathematics"":[""22/50"",""26/50"",""2 / 5""]}","{""elementary_mathematics"":false}","You should attempt this problem by yourself","null","null","null","null","true",""
"image-keyboard-response","7","3935761","0.0-4.0-2.0","l53jgehrslhjz1h","5b16d24d388d8b00014fa6e6","67b62c430b9240ccd8986e70","67b631b38ff53dc7318c2ce0","0","null","","","null","","","What is the value of p in 24 = 2p?","[""p = 4"",""p = 8"",""p = 12"",""p = 24""]","B","C","modiste","","C","20","algLinUCB_0.9","diff-topics","elementary_mathematics","The following are multiple choice questions about high_school_mathematics.
Colton and his dad bought a gallon of paint that cost $13. They also bought 2 brushes that cost $9 each. What was the total cost, not including tax, of the brushes and the paint they bought?
(A) $22, (B) $24, (C) $31, (D) $35
Answer: C
Solve for y. y – 2 + 3y = 10
(A) 2, (B) 3, (C) 4, (D) 5
Answer: B
Solve 3 over 2 * w = 66.
(A) 33, (B) 44, (C) 88, (D) 99
Answer: B
Write 5.875 as a mixed number or fraction in simplest form.
(A) 5 and 8 over 9, (B) 5 and 7 over 8, (C) 7 over 8, (D) 5 and 87 over 105
Answer: B
Solve the equation 124 = m + 34.
(A) 158, (B) 90, (C) 88, (D) 4,216
Answer: B
Zelma buys p pounds of bananas for 40 cents per pound. She pays the clerk with a twenty-dollar bill. The clerk subtracts the total cost of the bananas from the twenty-dollar bill to determine the amount of change to give Zelma. Which expression represents the amount of change Zelma should receive?
(A) p - 20, (B) 20 - 40p, (C) 20 - 0.40p, (D) 0.40p - 20
Answer: C
Please answer the following question with just the correct option (A, B, C, or D) without any explanation or additional text.
What is the value of p in 24 = 2p?
(A) 'p = 4', (B) 'p = 8', (C) 'p = 12', (D) 'p = 24'
Answer:","","","","","","","","","","","","","","","","","","","","","","feedback_imgs/Correct.png"
"call-function","8","3935762","0.0-4.0-0.1","l53jgehrslhjz1h","5b16d24d388d8b00014fa6e6","67b62c430b9240ccd8986e70","67b631b38ff53dc7318c2ce0","0","","","","","","defer","Let (Z_{10} , +, x) be the ring of integers modulo 10, and let S be the subset of Z_{10} represented by {0, 2, 4, 6, 8}. Which of the following statements is FALSE?","[""(S, +, x) is closed under addition modulo 10."",""(S, +, x) is closed under multiplication modulo 10."",""(S, +, x) has an identity under addition modulo 10."",""(S, +, x) has no identity under multiplication modulo 10.""]","A","B","modiste","","D","45","algLinUCB_0.9","diff-topics","college_mathematics","The following are multiple choice questions about high_school_mathematics.
Colton and his dad bought a gallon of paint that cost $13. They also bought 2 brushes that cost $9 each. What was the total cost, not including tax, of the brushes and the paint they bought?
(A) $22, (B) $24, (C) $31, (D) $35
Answer: C
Solve for y. y – 2 + 3y = 10
(A) 2, (B) 3, (C) 4, (D) 5
Answer: B
Solve 3 over 2 * w = 66.
(A) 33, (B) 44, (C) 88, (D) 99
Answer: B
Write 5.875 as a mixed number or fraction in simplest form.
(A) 5 and 8 over 9, (B) 5 and 7 over 8, (C) 7 over 8, (D) 5 and 87 over 105
Answer: B
Solve the equation 124 = m + 34.
(A) 158, (B) 90, (C) 88, (D) 4,216
Answer: B
Zelma buys p pounds of bananas for 40 cents per pound. She pays the clerk with a twenty-dollar bill. The clerk subtracts the total cost of the bananas from the twenty-dollar bill to determine the amount of change to give Zelma. Which expression represents the amount of change Zelma should receive?
(A) p - 20, (B) 20 - 40p, (C) 20 - 0.40p, (D) 0.40p - 20
Answer: C
Please answer the following question with just the correct option (A, B, C, or D) without any explanation or additional text.
Let (Z_{10} , +, x) be the ring of integers modulo 10, and let S be the subset of Z_{10} represented by {0, 2, 4, 6, 8}. Which of the following statements is FALSE?
(A) '(S, +, x) is closed under addition modulo 10.', (B) '(S, +, x) is closed under multiplication modulo 10.', (C) '(S, +, x) has an identity under addition modulo 10.', (D) '(S, +, x) has no identity under multiplication modulo 10.'
Answer:","","","","","","","","","","","","","","","","","","","","","",""
"survey-html-form","9","3956274","0.0-4.0-1.1","l53jgehrslhjz1h","5b16d24d388d8b00014fa6e6","67b62c430b9240ccd8986e70","67b631b38ff53dc7318c2ce0","0","20508","","","{""mcAnswer"":""D""}","","","Let (Z_{10} , +, x) be the ring of integers modulo 10, and let S be the subset of Z_{10} represented by {0, 2, 4, 6, 8}. Which of the following statements is FALSE?","[""(S, +, x) is closed under addition modulo 10."",""(S, +, x) is closed under multiplication modulo 10."",""(S, +, x) has an identity under addition modulo 10."",""(S, +, x) has no identity under multiplication modulo 10.""]","A","B","modiste","","D","45","algLinUCB_0.9","diff-topics","college_mathematics","The following are multiple choice questions about high_school_mathematics.
Colton and his dad bought a gallon of paint that cost $13. They also bought 2 brushes that cost $9 each. What was the total cost, not including tax, of the brushes and the paint they bought?
(A) $22, (B) $24, (C) $31, (D) $35
Answer: C
Solve for y. y – 2 + 3y = 10
(A) 2, (B) 3, (C) 4, (D) 5
Answer: B
Solve 3 over 2 * w = 66.
(A) 33, (B) 44, (C) 88, (D) 99
Answer: B
Write 5.875 as a mixed number or fraction in simplest form.
(A) 5 and 8 over 9, (B) 5 and 7 over 8, (C) 7 over 8, (D) 5 and 87 over 105
Answer: B
Solve the equation 124 = m + 34.
(A) 158, (B) 90, (C) 88, (D) 4,216
Answer: B
Zelma buys p pounds of bananas for 40 cents per pound. She pays the clerk with a twenty-dollar bill. The clerk subtracts the total cost of the bananas from the twenty-dollar bill to determine the amount of change to give Zelma. Which expression represents the amount of change Zelma should receive?
(A) p - 20, (B) 20 - 40p, (C) 20 - 0.40p, (D) 0.40p - 20
Answer: C
Please answer the following question with just the correct option (A, B, C, or D) without any explanation or additional text.
Let (Z_{10} , +, x) be the ring of integers modulo 10, and let S be the subset of Z_{10} represented by {0, 2, 4, 6, 8}. Which of the following statements is FALSE?
(A) '(S, +, x) is closed under addition modulo 10.', (B) '(S, +, x) is closed under multiplication modulo 10.', (C) '(S, +, x) has an identity under addition modulo 10.', (D) '(S, +, x) has no identity under multiplication modulo 10.'
Answer:","","","","","","","","","","","","","","","","","","","","","",""
"","","","","","","","","","","","","","","","","","","","","","","","","","","","D","","","","","","","","","","","","","","","","","","","","",""
"","","","","","","","","","","","","","","","","","","","","","","","","","","","","false","120","-1","A","true","false","defer","[]","false","0","false","0","{""elementary_mathematics"":[""40/50"",""31/50"",""5/6""],""high_school_mathematics"":[""27/50"",""22/50"",""3 / 5""],""college_mathematics"":[""22/50"",""26/50"",""3/6""]}","{""elementary_mathematics"":false,""college_mathematics"":false}","You should outsource this problem to the AI agent","null","null","false","null","null",""
"image-keyboard-response","10","3957777","0.0-4.0-2.1","l53jgehrslhjz1h","5b16d24d388d8b00014fa6e6","67b62c430b9240ccd8986e70","67b631b38ff53dc7318c2ce0","0","null","","","null","","","Let (Z_{10} , +, x) be the ring of integers modulo 10, and let S be the subset of Z_{10} represented by {0, 2, 4, 6, 8}. Which of the following statements is FALSE?","[""(S, +, x) is closed under addition modulo 10."",""(S, +, x) is closed under multiplication modulo 10."",""(S, +, x) has an identity under addition modulo 10."",""(S, +, x) has no identity under multiplication modulo 10.""]","A","B","modiste","","D","45","algLinUCB_0.9","diff-topics","college_mathematics","The following are multiple choice questions about high_school_mathematics.
Colton and his dad bought a gallon of paint that cost $13. They also bought 2 brushes that cost $9 each. What was the total cost, not including tax, of the brushes and the paint they bought?
(A) $22, (B) $24, (C) $31, (D) $35
Answer: C
Solve for y. y – 2 + 3y = 10
(A) 2, (B) 3, (C) 4, (D) 5
Answer: B
Solve 3 over 2 * w = 66.
(A) 33, (B) 44, (C) 88, (D) 99
Answer: B
Write 5.875 as a mixed number or fraction in simplest form.
(A) 5 and 8 over 9, (B) 5 and 7 over 8, (C) 7 over 8, (D) 5 and 87 over 105
Answer: B
Solve the equation 124 = m + 34.
(A) 158, (B) 90, (C) 88, (D) 4,216
Answer: B
Zelma buys p pounds of bananas for 40 cents per pound. She pays the clerk with a twenty-dollar bill. The clerk subtracts the total cost of the bananas from the twenty-dollar bill to determine the amount of change to give Zelma. Which expression represents the amount of change Zelma should receive?
(A) p - 20, (B) 20 - 40p, (C) 20 - 0.40p, (D) 0.40p - 20
Answer: C
Please answer the following question with just the correct option (A, B, C, or D) without any explanation or additional text.
Let (Z_{10} , +, x) be the ring of integers modulo 10, and let S be the subset of Z_{10} represented by {0, 2, 4, 6, 8}. Which of the following statements is FALSE?
(A) '(S, +, x) is closed under addition modulo 10.', (B) '(S, +, x) is closed under multiplication modulo 10.', (C) '(S, +, x) has an identity under addition modulo 10.', (D) '(S, +, x) has no identity under multiplication modulo 10.'
Answer:","","","","","","","","","","","","","","","","","","","","","","feedback_imgs/Correct.png"
"call-function","11","3957778","0.0-4.0-0.2","l53jgehrslhjz1h","5b16d24d388d8b00014fa6e6","67b62c430b9240ccd8986e70","67b631b38ff53dc7318c2ce0","0","","","","","","defer","Which is the best buy?","[""10 bars of soap for 23.20"",""16 bars of soap for 36.48"",""13 bars of soap for 29.51"",""12 bars of soap for 27.60""]","A","C","modiste","","C","34","algLinUCB_0.9","diff-topics","elementary_mathematics","The following are multiple choice questions about high_school_mathematics.
Colton and his dad bought a gallon of paint that cost $13. They also bought 2 brushes that cost $9 each. What was the total cost, not including tax, of the brushes and the paint they bought?
(A) $22, (B) $24, (C) $31, (D) $35
Answer: C
Solve for y. y – 2 + 3y = 10
(A) 2, (B) 3, (C) 4, (D) 5
Answer: B
Solve 3 over 2 * w = 66.
(A) 33, (B) 44, (C) 88, (D) 99
Answer: B
Write 5.875 as a mixed number or fraction in simplest form.
(A) 5 and 8 over 9, (B) 5 and 7 over 8, (C) 7 over 8, (D) 5 and 87 over 105
Answer: B
Solve the equation 124 = m + 34.
(A) 158, (B) 90, (C) 88, (D) 4,216
Answer: B
Zelma buys p pounds of bananas for 40 cents per pound. She pays the clerk with a twenty-dollar bill. The clerk subtracts the total cost of the bananas from the twenty-dollar bill to determine the amount of change to give Zelma. Which expression represents the amount of change Zelma should receive?
(A) p - 20, (B) 20 - 40p, (C) 20 - 0.40p, (D) 0.40p - 20
Answer: C
Please answer the following question with just the correct option (A, B, C, or D) without any explanation or additional text.
Which is the best buy?
(A) '10 bars of soap for 23.20', (B) '16 bars of soap for 36.48', (C) '13 bars of soap for 29.51', (D) '12 bars of soap for 27.60'
Answer:","","","","","","","","","","","","","","","","","","","","","",""
"survey-html-form","12","3975871","0.0-4.0-1.2","l53jgehrslhjz1h","5b16d24d388d8b00014fa6e6","67b62c430b9240ccd8986e70","67b631b38ff53dc7318c2ce0","0","18090.19999998808","","","{""mcAnswer"":""A""}","","","Which is the best buy?","[""10 bars of soap for 23.20"",""16 bars of soap for 36.48"",""13 bars of soap for 29.51"",""12 bars of soap for 27.60""]","A","C","modiste","","C","34","algLinUCB_0.9","diff-topics","elementary_mathematics","The following are multiple choice questions about high_school_mathematics.
Colton and his dad bought a gallon of paint that cost $13. They also bought 2 brushes that cost $9 each. What was the total cost, not including tax, of the brushes and the paint they bought?
(A) $22, (B) $24, (C) $31, (D) $35
Answer: C
Solve for y. y – 2 + 3y = 10
(A) 2, (B) 3, (C) 4, (D) 5
Answer: B
Solve 3 over 2 * w = 66.
(A) 33, (B) 44, (C) 88, (D) 99
Answer: B
Write 5.875 as a mixed number or fraction in simplest form.
(A) 5 and 8 over 9, (B) 5 and 7 over 8, (C) 7 over 8, (D) 5 and 87 over 105
Answer: B
Solve the equation 124 = m + 34.
(A) 158, (B) 90, (C) 88, (D) 4,216
Answer: B
Zelma buys p pounds of bananas for 40 cents per pound. She pays the clerk with a twenty-dollar bill. The clerk subtracts the total cost of the bananas from the twenty-dollar bill to determine the amount of change to give Zelma. Which expression represents the amount of change Zelma should receive?
(A) p - 20, (B) 20 - 40p, (C) 20 - 0.40p, (D) 0.40p - 20
Answer: C
Please answer the following question with just the correct option (A, B, C, or D) without any explanation or additional text.
Which is the best buy?
(A) '10 bars of soap for 23.20', (B) '16 bars of soap for 36.48', (C) '13 bars of soap for 29.51', (D) '12 bars of soap for 27.60'
Answer:","","","","","","","","","","","","","","","","","","","","","",""
"","","","","","","","","","","","","","","","","","","","","","","","","","","","A","","","","","","","","","","","","","","","","","","","","",""
"","","","","","","","","","","","","","","","","","","","","","","","","","","","","false","120","-1","A","false","false","defer","[]","false","0","false","0","{""elementary_mathematics"":[""40/50"",""31/50"",""5/7""],""high_school_mathematics"":[""27/50"",""22/50"",""3 / 5""],""college_mathematics"":[""22/50"",""26/50"",""3/6""]}","{""elementary_mathematics"":true,""college_mathematics"":false}","You should attempt this problem by yourself","null","null","null","null","true",""
"image-keyboard-response","13","3977375","0.0-4.0-2.2","l53jgehrslhjz1h","5b16d24d388d8b00014fa6e6","67b62c430b9240ccd8986e70","67b631b38ff53dc7318c2ce0","0","null","","","null","","","Which is the best buy?","[""10 bars of soap for 23.20"",""16 bars of soap for 36.48"",""13 bars of soap for 29.51"",""12 bars of soap for 27.60""]","A","C","modiste","","C","34","algLinUCB_0.9","diff-topics","elementary_mathematics","The following are multiple choice questions about high_school_mathematics.
Colton and his dad bought a gallon of paint that cost $13. They also bought 2 brushes that cost $9 each. What was the total cost, not including tax, of the brushes and the paint they bought?
(A) $22, (B) $24, (C) $31, (D) $35
Answer: C
Solve for y. y – 2 + 3y = 10
(A) 2, (B) 3, (C) 4, (D) 5
Answer: B
Solve 3 over 2 * w = 66.
(A) 33, (B) 44, (C) 88, (D) 99
Answer: B
Write 5.875 as a mixed number or fraction in simplest form.
(A) 5 and 8 over 9, (B) 5 and 7 over 8, (C) 7 over 8, (D) 5 and 87 over 105
Answer: B
Solve the equation 124 = m + 34.
(A) 158, (B) 90, (C) 88, (D) 4,216
Answer: B
Zelma buys p pounds of bananas for 40 cents per pound. She pays the clerk with a twenty-dollar bill. The clerk subtracts the total cost of the bananas from the twenty-dollar bill to determine the amount of change to give Zelma. Which expression represents the amount of change Zelma should receive?
(A) p - 20, (B) 20 - 40p, (C) 20 - 0.40p, (D) 0.40p - 20
Answer: C
Please answer the following question with just the correct option (A, B, C, or D) without any explanation or additional text.
Which is the best buy?
(A) '10 bars of soap for 23.20', (B) '16 bars of soap for 36.48', (C) '13 bars of soap for 29.51', (D) '12 bars of soap for 27.60'
Answer:","","","","","","","","","","","","","","","","","","","","","","feedback_imgs/Incorrect.png"
"call-function","14","3977376","0.0-4.0-0.3","l53jgehrslhjz1h","5b16d24d388d8b00014fa6e6","67b62c430b9240ccd8986e70","67b631b38ff53dc7318c2ce0","0","","","","","","defer","You and three friends go to a concert. The total cost for four tickets is 112. Write and solve an equation to find the cost of one ticket t.","[""4t = 112; 448"",""4t = 112; 28"",""t over 4 = 112; 448"",""t over 4 = 112; 28""]","B","B","modiste","","B","24","algLinUCB_0.9","diff-topics","elementary_mathematics","The following are multiple choice questions about high_school_mathematics.
Colton and his dad bought a gallon of paint that cost $13. They also bought 2 brushes that cost $9 each. What was the total cost, not including tax, of the brushes and the paint they bought?
(A) $22, (B) $24, (C) $31, (D) $35
Answer: C
Solve for y. y – 2 + 3y = 10
(A) 2, (B) 3, (C) 4, (D) 5
Answer: B
Solve 3 over 2 * w = 66.
(A) 33, (B) 44, (C) 88, (D) 99
Answer: B
Write 5.875 as a mixed number or fraction in simplest form.
(A) 5 and 8 over 9, (B) 5 and 7 over 8, (C) 7 over 8, (D) 5 and 87 over 105
Answer: B
Solve the equation 124 = m + 34.
(A) 158, (B) 90, (C) 88, (D) 4,216
Answer: B
Zelma buys p pounds of bananas for 40 cents per pound. She pays the clerk with a twenty-dollar bill. The clerk subtracts the total cost of the bananas from the twenty-dollar bill to determine the amount of change to give Zelma. Which expression represents the amount of change Zelma should receive?
(A) p - 20, (B) 20 - 40p, (C) 20 - 0.40p, (D) 0.40p - 20
Answer: C
Please answer the following question with just the correct option (A, B, C, or D) without any explanation or additional text.
You and three friends go to a concert. The total cost for four tickets is 112. Write and solve an equation to find the cost of one ticket t.
(A) '4t = 112; 448', (B) '4t = 112; 28', (C) 't over 4 = 112; 448', (D) 't over 4 = 112; 28'
Answer:","","","","","","","","","","true","2","","","","","","","","","","",""
"survey-html-form","15","4010724","0.0-4.0-1.3","l53jgehrslhjz1h","5b16d24d388d8b00014fa6e6","67b62c430b9240ccd8986e70","67b631b38ff53dc7318c2ce0","0","33343.30000001192","","","{""mcAnswer"":""B""}","","","You and three friends go to a concert. The total cost for four tickets is 112. Write and solve an equation to find the cost of one ticket t.","[""4t = 112; 448"",""4t = 112; 28"",""t over 4 = 112; 448"",""t over 4 = 112; 28""]","B","B","modiste","","B","24","algLinUCB_0.9","diff-topics","elementary_mathematics","The following are multiple choice questions about high_school_mathematics.
Colton and his dad bought a gallon of paint that cost $13. They also bought 2 brushes that cost $9 each. What was the total cost, not including tax, of the brushes and the paint they bought?
(A) $22, (B) $24, (C) $31, (D) $35
Answer: C
Solve for y. y – 2 + 3y = 10
(A) 2, (B) 3, (C) 4, (D) 5
Answer: B
Solve 3 over 2 * w = 66.
(A) 33, (B) 44, (C) 88, (D) 99
Answer: B
Write 5.875 as a mixed number or fraction in simplest form.
(A) 5 and 8 over 9, (B) 5 and 7 over 8, (C) 7 over 8, (D) 5 and 87 over 105
Answer: B
Solve the equation 124 = m + 34.
(A) 158, (B) 90, (C) 88, (D) 4,216
Answer: B
Zelma buys p pounds of bananas for 40 cents per pound. She pays the clerk with a twenty-dollar bill. The clerk subtracts the total cost of the bananas from the twenty-dollar bill to determine the amount of change to give Zelma. Which expression represents the amount of change Zelma should receive?
(A) p - 20, (B) 20 - 40p, (C) 20 - 0.40p, (D) 0.40p - 20
Answer: C
Please answer the following question with just the correct option (A, B, C, or D) without any explanation or additional text.
You and three friends go to a concert. The total cost for four tickets is 112. Write and solve an equation to find the cost of one ticket t.
(A) '4t = 112; 448', (B) '4t = 112; 28', (C) 't over 4 = 112; 448', (D) 't over 4 = 112; 28'
Answer:","","","","","","","","","","","","","","","","","","","","","",""
"","","","","","","","","","","","","","","","","","","","","","","","","","","","B","","","","","","","","","","","","","","","","","","","","",""
"","","","","","","","","","","","","","","","","","","","","","","","","","","","","false","123","-1","B","true","true","defer","[]","true","2","false","0","{""elementary_mathematics"":[""41/51"",""31/50"",""5/7""],""high_school_mathematics"":[""27/50"",""22/50"",""3 / 5""],""college_mathematics"":[""22/50"",""26/50"",""3/6""]}","{""elementary_mathematics"":false,""college_mathematics"":false}","You were wrong by yourself on elementary_mathematics last time. You should outsource this problem to a human agent","null","false","null","true","null",""
"image-keyboard-response","16","4012227","0.0-4.0-2.3","l53jgehrslhjz1h","5b16d24d388d8b00014fa6e6","67b62c430b9240ccd8986e70","67b631b38ff53dc7318c2ce0","0","null","","","null","","","You and three friends go to a concert. The total cost for four tickets is 112. Write and solve an equation to find the cost of one ticket t.","[""4t = 112; 448"",""4t = 112; 28"",""t over 4 = 112; 448"",""t over 4 = 112; 28""]","B","B","modiste","","B","24","algLinUCB_0.9","diff-topics","elementary_mathematics","The following are multiple choice questions about high_school_mathematics.
Colton and his dad bought a gallon of paint that cost $13. They also bought 2 brushes that cost $9 each. What was the total cost, not including tax, of the brushes and the paint they bought?
(A) $22, (B) $24, (C) $31, (D) $35
Answer: C
Solve for y. y – 2 + 3y = 10
(A) 2, (B) 3, (C) 4, (D) 5
Answer: B
Solve 3 over 2 * w = 66.
(A) 33, (B) 44, (C) 88, (D) 99
Answer: B
Write 5.875 as a mixed number or fraction in simplest form.
(A) 5 and 8 over 9, (B) 5 and 7 over 8, (C) 7 over 8, (D) 5 and 87 over 105
Answer: B
Solve the equation 124 = m + 34.
(A) 158, (B) 90, (C) 88, (D) 4,216
Answer: B
Zelma buys p pounds of bananas for 40 cents per pound. She pays the clerk with a twenty-dollar bill. The clerk subtracts the total cost of the bananas from the twenty-dollar bill to determine the amount of change to give Zelma. Which expression represents the amount of change Zelma should receive?
(A) p - 20, (B) 20 - 40p, (C) 20 - 0.40p, (D) 0.40p - 20
Answer: C
Please answer the following question with just the correct option (A, B, C, or D) without any explanation or additional text.
You and three friends go to a concert. The total cost for four tickets is 112. Write and solve an equation to find the cost of one ticket t.
(A) '4t = 112; 448', (B) '4t = 112; 28', (C) 't over 4 = 112; 448', (D) 't over 4 = 112; 28'
Answer:","","","","","","","","","","","","","","","","","","","","","","feedback_imgs/Correct.png"
"call-function","17","4012228","0.0-4.0-0.4","l53jgehrslhjz1h","5b16d24d388d8b00014fa6e6","67b62c430b9240ccd8986e70","67b631b38ff53dc7318c2ce0","0","","","","","","defer","Consider a segment of length 10. Points A and B are chosen randomly such that A and B divide the segment into three smaller segments. What is the probability that the three smaller segments could form the sides of a triangle?","[""0"",""10%"",""25%"",""50%""]","C","C","modiste","","C","47","algLinUCB_0.9","diff-topics","college_mathematics","The following are multiple choice questions about high_school_mathematics.
Colton and his dad bought a gallon of paint that cost $13. They also bought 2 brushes that cost $9 each. What was the total cost, not including tax, of the brushes and the paint they bought?
(A) $22, (B) $24, (C) $31, (D) $35
Answer: C
Solve for y. y – 2 + 3y = 10
(A) 2, (B) 3, (C) 4, (D) 5
Answer: B
Solve 3 over 2 * w = 66.
(A) 33, (B) 44, (C) 88, (D) 99
Answer: B
Write 5.875 as a mixed number or fraction in simplest form.
(A) 5 and 8 over 9, (B) 5 and 7 over 8, (C) 7 over 8, (D) 5 and 87 over 105
Answer: B
Solve the equation 124 = m + 34.
(A) 158, (B) 90, (C) 88, (D) 4,216
Answer: B
Zelma buys p pounds of bananas for 40 cents per pound. She pays the clerk with a twenty-dollar bill. The clerk subtracts the total cost of the bananas from the twenty-dollar bill to determine the amount of change to give Zelma. Which expression represents the amount of change Zelma should receive?
(A) p - 20, (B) 20 - 40p, (C) 20 - 0.40p, (D) 0.40p - 20
Answer: C
Please answer the following question with just the correct option (A, B, C, or D) without any explanation or additional text.
Consider a segment of length 10. Points A and B are chosen randomly such that A and B divide the segment into three smaller segments. What is the probability that the three smaller segments could form the sides of a triangle?
(A) '0', (B) '10%', (C) '25%', (D) '50%'
Answer:","","","","","","","","","","","","true","2","","","","","","","","",""
"survey-html-form","18","4085266","0.0-4.0-1.4","l53jgehrslhjz1h","5b16d24d388d8b00014fa6e6","67b62c430b9240ccd8986e70","67b631b38ff53dc7318c2ce0","0","73034.30000001192","","","{""mcAnswer"":""C""}","","","Consider a segment of length 10. Points A and B are chosen randomly such that A and B divide the segment into three smaller segments. What is the probability that the three smaller segments could form the sides of a triangle?","[""0"",""10%"",""25%"",""50%""]","C","C","modiste","","C","47","algLinUCB_0.9","diff-topics","college_mathematics","The following are multiple choice questions about high_school_mathematics.
Colton and his dad bought a gallon of paint that cost $13. They also bought 2 brushes that cost $9 each. What was the total cost, not including tax, of the brushes and the paint they bought?
(A) $22, (B) $24, (C) $31, (D) $35
Answer: C
Solve for y. y – 2 + 3y = 10
(A) 2, (B) 3, (C) 4, (D) 5
Answer: B
Solve 3 over 2 * w = 66.
(A) 33, (B) 44, (C) 88, (D) 99
Answer: B
Write 5.875 as a mixed number or fraction in simplest form.
(A) 5 and 8 over 9, (B) 5 and 7 over 8, (C) 7 over 8, (D) 5 and 87 over 105
Answer: B
Solve the equation 124 = m + 34.
(A) 158, (B) 90, (C) 88, (D) 4,216
Answer: B
Zelma buys p pounds of bananas for 40 cents per pound. She pays the clerk with a twenty-dollar bill. The clerk subtracts the total cost of the bananas from the twenty-dollar bill to determine the amount of change to give Zelma. Which expression represents the amount of change Zelma should receive?
(A) p - 20, (B) 20 - 40p, (C) 20 - 0.40p, (D) 0.40p - 20
Answer: C
Please answer the following question with just the correct option (A, B, C, or D) without any explanation or additional text.
Consider a segment of length 10. Points A and B are chosen randomly such that A and B divide the segment into three smaller segments. What is the probability that the three smaller segments could form the sides of a triangle?
(A) '0', (B) '10%', (C) '25%', (D) '50%'
Answer:","","","","","","","","","","","","","","","","","","","","","",""
"","","","","","","","","","","","","","","","","","","","","","","","","","","","C","","","","","","","","","","","","","","","","","","","","",""
"","","","","","","","","","","","","","","","","","","","","","","","","","","","","false","130","-1","C","true","true","defer","[]","false","0","true","2","{""elementary_mathematics"":[""41/51"",""31/50"",""5/7""],""high_school_mathematics"":[""27/50"",""22/50"",""3 / 5""],""college_mathematics"":[""22/50"",""27/51"",""3/6""]}","{""elementary_mathematics"":false,""college_mathematics"":false}","You should outsource this problem to the AI agent","false","null","true","null","null",""
"image-keyboard-response","19","4086770","0.0-4.0-2.4","l53jgehrslhjz1h","5b16d24d388d8b00014fa6e6","67b62c430b9240ccd8986e70","67b631b38ff53dc7318c2ce0","0","null","","","null","","","Consider a segment of length 10. Points A and B are chosen randomly such that A and B divide the segment into three smaller segments. What is the probability that the three smaller segments could form the sides of a triangle?","[""0"",""10%"",""25%"",""50%""]","C","C","modiste","","C","47","algLinUCB_0.9","diff-topics","college_mathematics","The following are multiple choice questions about high_school_mathematics.
Colton and his dad bought a gallon of paint that cost $13. They also bought 2 brushes that cost $9 each. What was the total cost, not including tax, of the brushes and the paint they bought?
(A) $22, (B) $24, (C) $31, (D) $35
Answer: C
Solve for y. y – 2 + 3y = 10
(A) 2, (B) 3, (C) 4, (D) 5
Answer: B
Solve 3 over 2 * w = 66.
(A) 33, (B) 44, (C) 88, (D) 99
Answer: B
Write 5.875 as a mixed number or fraction in simplest form.
(A) 5 and 8 over 9, (B) 5 and 7 over 8, (C) 7 over 8, (D) 5 and 87 over 105
Answer: B
Solve the equation 124 = m + 34.
(A) 158, (B) 90, (C) 88, (D) 4,216
Answer: B
Zelma buys p pounds of bananas for 40 cents per pound. She pays the clerk with a twenty-dollar bill. The clerk subtracts the total cost of the bananas from the twenty-dollar bill to determine the amount of change to give Zelma. Which expression represents the amount of change Zelma should receive?
(A) p - 20, (B) 20 - 40p, (C) 20 - 0.40p, (D) 0.40p - 20
Answer: C
Please answer the following question with just the correct option (A, B, C, or D) without any explanation or additional text.
Consider a segment of length 10. Points A and B are chosen randomly such that A and B divide the segment into three smaller segments. What is the probability that the three smaller segments could form the sides of a triangle?
(A) '0', (B) '10%', (C) '25%', (D) '50%'
Answer:","","","","","","","","","","","","","","","","","","","","","","feedback_imgs/Correct.png"
"call-function","20","4086771","0.0-4.0-0.5","l53jgehrslhjz1h","5b16d24d388d8b00014fa6e6","67b62c430b9240ccd8986e70","67b631b38ff53dc7318c2ce0","0","","","","","","defer","A meteorologist reports that there is a 30% probability of rain and no sun. If there is a 40% probability of no rain, then the probability of both rain and sun is","[""0.16"",""0.24"",""0.3"",""0.5""]","B","C","modiste","","C","11","algLinUCB_0.9","diff-topics","high_school_mathematics","The following are multiple choice questions about high_school_mathematics.
Colton and his dad bought a gallon of paint that cost $13. They also bought 2 brushes that cost $9 each. What was the total cost, not including tax, of the brushes and the paint they bought?
(A) $22, (B) $24, (C) $31, (D) $35
Answer: C
Solve for y. y – 2 + 3y = 10
(A) 2, (B) 3, (C) 4, (D) 5
Answer: B
Solve 3 over 2 * w = 66.
(A) 33, (B) 44, (C) 88, (D) 99
Answer: B
Write 5.875 as a mixed number or fraction in simplest form.
(A) 5 and 8 over 9, (B) 5 and 7 over 8, (C) 7 over 8, (D) 5 and 87 over 105
Answer: B
Solve the equation 124 = m + 34.
(A) 158, (B) 90, (C) 88, (D) 4,216
Answer: B
Zelma buys p pounds of bananas for 40 cents per pound. She pays the clerk with a twenty-dollar bill. The clerk subtracts the total cost of the bananas from the twenty-dollar bill to determine the amount of change to give Zelma. Which expression represents the amount of change Zelma should receive?
(A) p - 20, (B) 20 - 40p, (C) 20 - 0.40p, (D) 0.40p - 20
Answer: C
Please answer the following question with just the correct option (A, B, C, or D) without any explanation or additional text.
A meteorologist reports that there is a 30% probability of rain and no sun. If there is a 40% probability of no rain, then the probability of both rain and sun is
(A) '0.16', (B) '0.24', (C) '0.3', (D) '0.5'
Answer:","","","","","","","","","","","","true","2","","","","","","","","",""
"survey-html-form","21","4102700","0.0-4.0-1.5","l53jgehrslhjz1h","5b16d24d388d8b00014fa6e6","67b62c430b9240ccd8986e70","67b631b38ff53dc7318c2ce0","0","15924.300000011921","","","{""mcAnswer"":""B""}","","","A meteorologist reports that there is a 30% probability of rain and no sun. If there is a 40% probability of no rain, then the probability of both rain and sun is","[""0.16"",""0.24"",""0.3"",""0.5""]","B","C","modiste","","C","11","algLinUCB_0.9","diff-topics","high_school_mathematics","The following are multiple choice questions about high_school_mathematics.
Colton and his dad bought a gallon of paint that cost $13. They also bought 2 brushes that cost $9 each. What was the total cost, not including tax, of the brushes and the paint they bought?
(A) $22, (B) $24, (C) $31, (D) $35
Answer: C
Solve for y. y – 2 + 3y = 10
(A) 2, (B) 3, (C) 4, (D) 5
Answer: B
Solve 3 over 2 * w = 66.
(A) 33, (B) 44, (C) 88, (D) 99
Answer: B
Write 5.875 as a mixed number or fraction in simplest form.
(A) 5 and 8 over 9, (B) 5 and 7 over 8, (C) 7 over 8, (D) 5 and 87 over 105
Answer: B
Solve the equation 124 = m + 34.
(A) 158, (B) 90, (C) 88, (D) 4,216
Answer: B
Zelma buys p pounds of bananas for 40 cents per pound. She pays the clerk with a twenty-dollar bill. The clerk subtracts the total cost of the bananas from the twenty-dollar bill to determine the amount of change to give Zelma. Which expression represents the amount of change Zelma should receive?
(A) p - 20, (B) 20 - 40p, (C) 20 - 0.40p, (D) 0.40p - 20
Answer: C
Please answer the following question with just the correct option (A, B, C, or D) without any explanation or additional text.
A meteorologist reports that there is a 30% probability of rain and no sun. If there is a 40% probability of no rain, then the probability of both rain and sun is
(A) '0.16', (B) '0.24', (C) '0.3', (D) '0.5'
Answer:","","","","","","","","","","","","","","","","","","","","","",""
"","","","","","","","","","","","","","","","","","","","","","","","","","","","B","","","","","","","","","","","","","","","","","","","","",""
"","","","","","","","","","","","","","","","","","","","","","","","","","","","","false","127","-1","B","false","false","defer","[]","false","0","true","2","{""elementary_mathematics"":[""41/51"",""31/50"",""5/7""],""high_school_mathematics"":[""27/50"",""22/51"",""3 / 5""],""college_mathematics"":[""22/50"",""27/51"",""3/6""]}","{""elementary_mathematics"":false,""college_mathematics"":false,""high_school_mathematics"":false}","You should attempt this problem by yourself","false","null","null","null","false",""
"image-keyboard-response","22","4104204","0.0-4.0-2.5","l53jgehrslhjz1h","5b16d24d388d8b00014fa6e6","67b62c430b9240ccd8986e70","67b631b38ff53dc7318c2ce0","0","null","","","null","","","A meteorologist reports that there is a 30% probability of rain and no sun. If there is a 40% probability of no rain, then the probability of both rain and sun is","[""0.16"",""0.24"",""0.3"",""0.5""]","B","C","modiste","","C","11","algLinUCB_0.9","diff-topics","high_school_mathematics","The following are multiple choice questions about high_school_mathematics.
Colton and his dad bought a gallon of paint that cost $13. They also bought 2 brushes that cost $9 each. What was the total cost, not including tax, of the brushes and the paint they bought?
(A) $22, (B) $24, (C) $31, (D) $35
Answer: C
Solve for y. y – 2 + 3y = 10
(A) 2, (B) 3, (C) 4, (D) 5
Answer: B
Solve 3 over 2 * w = 66.
(A) 33, (B) 44, (C) 88, (D) 99
Answer: B
Write 5.875 as a mixed number or fraction in simplest form.
(A) 5 and 8 over 9, (B) 5 and 7 over 8, (C) 7 over 8, (D) 5 and 87 over 105
Answer: B
Solve the equation 124 = m + 34.
(A) 158, (B) 90, (C) 88, (D) 4,216
Answer: B
Zelma buys p pounds of bananas for 40 cents per pound. She pays the clerk with a twenty-dollar bill. The clerk subtracts the total cost of the bananas from the twenty-dollar bill to determine the amount of change to give Zelma. Which expression represents the amount of change Zelma should receive?
(A) p - 20, (B) 20 - 40p, (C) 20 - 0.40p, (D) 0.40p - 20
Answer: C
Please answer the following question with just the correct option (A, B, C, or D) without any explanation or additional text.
A meteorologist reports that there is a 30% probability of rain and no sun. If there is a 40% probability of no rain, then the probability of both rain and sun is
(A) '0.16', (B) '0.24', (C) '0.3', (D) '0.5'
Answer:","","","","","","","","","","","","","","","","","","","","","","feedback_imgs/Incorrect.png"
"call-function","23","4104205","0.0-4.0-0.6","l53jgehrslhjz1h","5b16d24d388d8b00014fa6e6","67b62c430b9240ccd8986e70","67b631b38ff53dc7318c2ce0","0","","","","","","defer","The variable x varies directly as the square of y, and y varies directly as the cube of z. If x equals -16 when z equals 2, what is the value of x when z equals 1/2?","[""-1"",""16"",""-1/256"",""1/16""]","C","C","modiste","","C","2","algLinUCB_0.9","diff-topics","high_school_mathematics","The following are multiple choice questions about high_school_mathematics.
Colton and his dad bought a gallon of paint that cost $13. They also bought 2 brushes that cost $9 each. What was the total cost, not including tax, of the brushes and the paint they bought?
(A) $22, (B) $24, (C) $31, (D) $35
Answer: C
Solve for y. y – 2 + 3y = 10
(A) 2, (B) 3, (C) 4, (D) 5
Answer: B
Solve 3 over 2 * w = 66.
(A) 33, (B) 44, (C) 88, (D) 99
Answer: B
Write 5.875 as a mixed number or fraction in simplest form.
(A) 5 and 8 over 9, (B) 5 and 7 over 8, (C) 7 over 8, (D) 5 and 87 over 105
Answer: B
Solve the equation 124 = m + 34.
(A) 158, (B) 90, (C) 88, (D) 4,216
Answer: B
Zelma buys p pounds of bananas for 40 cents per pound. She pays the clerk with a twenty-dollar bill. The clerk subtracts the total cost of the bananas from the twenty-dollar bill to determine the amount of change to give Zelma. Which expression represents the amount of change Zelma should receive?
(A) p - 20, (B) 20 - 40p, (C) 20 - 0.40p, (D) 0.40p - 20
Answer: C
Please answer the following question with just the correct option (A, B, C, or D) without any explanation or additional text.
The variable x varies directly as the square of y, and y varies directly as the cube of z. If x equals -16 when z equals 2, what is the value of x when z equals 1/2?
(A) '-1', (B) '16', (C) '-1/256', (D) '1/16'
Answer:","","","","","","","","","","","","true","2","","","","","","","","",""
"survey-html-form","24","4125083","0.0-4.0-1.6","l53jgehrslhjz1h","5b16d24d388d8b00014fa6e6","67b62c430b9240ccd8986e70","67b631b38ff53dc7318c2ce0","0","20874.09999999404","","","{""mcAnswer"":""C""}","","","The variable x varies directly as the square of y, and y varies directly as the cube of z. If x equals -16 when z equals 2, what is the value of x when z equals 1/2?","[""-1"",""16"",""-1/256"",""1/16""]","C","C","modiste","","C","2","algLinUCB_0.9","diff-topics","high_school_mathematics","The following are multiple choice questions about high_school_mathematics.
Colton and his dad bought a gallon of paint that cost $13. They also bought 2 brushes that cost $9 each. What was the total cost, not including tax, of the brushes and the paint they bought?
(A) $22, (B) $24, (C) $31, (D) $35
Answer: C
Solve for y. y – 2 + 3y = 10
(A) 2, (B) 3, (C) 4, (D) 5
Answer: B
Solve 3 over 2 * w = 66.
(A) 33, (B) 44, (C) 88, (D) 99
Answer: B
Write 5.875 as a mixed number or fraction in simplest form.
(A) 5 and 8 over 9, (B) 5 and 7 over 8, (C) 7 over 8, (D) 5 and 87 over 105
Answer: B
Solve the equation 124 = m + 34.
(A) 158, (B) 90, (C) 88, (D) 4,216
Answer: B
Zelma buys p pounds of bananas for 40 cents per pound. She pays the clerk with a twenty-dollar bill. The clerk subtracts the total cost of the bananas from the twenty-dollar bill to determine the amount of change to give Zelma. Which expression represents the amount of change Zelma should receive?
(A) p - 20, (B) 20 - 40p, (C) 20 - 0.40p, (D) 0.40p - 20
Answer: C
Please answer the following question with just the correct option (A, B, C, or D) without any explanation or additional text.
The variable x varies directly as the square of y, and y varies directly as the cube of z. If x equals -16 when z equals 2, what is the value of x when z equals 1/2?
(A) '-1', (B) '16', (C) '-1/256', (D) '1/16'
Answer:","","","","","","","","","","","","","","","","","","","","","",""
"","","","","","","","","","","","","","","","","","","","","","","","","","","","C","","","","","","","","","","","","","","","","","","","","",""
"","","","","","","","","","","","","","","","","","","","","","","","","","","","","false","134","-1","C","true","true","defer","[]","false","0","true","2","{""elementary_mathematics"":[""41/51"",""31/50"",""5/7""],""high_school_mathematics"":[""27/50"",""23/52"",""3 / 5""],""college_mathematics"":[""22/50"",""27/51"",""3/6""]}","{""elementary_mathematics"":false,""college_mathematics"":false,""high_school_mathematics"":false}","You should attempt this problem by yourself","false","null","null","null","false",""
"image-keyboard-response","25","4126586","0.0-4.0-2.6","l53jgehrslhjz1h","5b16d24d388d8b00014fa6e6","67b62c430b9240ccd8986e70","67b631b38ff53dc7318c2ce0","0","null","","","null","","","The variable x varies directly as the square of y, and y varies directly as the cube of z. If x equals -16 when z equals 2, what is the value of x when z equals 1/2?","[""-1"",""16"",""-1/256"",""1/16""]","C","C","modiste","","C","2","algLinUCB_0.9","diff-topics","high_school_mathematics","The following are multiple choice questions about high_school_mathematics.
Colton and his dad bought a gallon of paint that cost $13. They also bought 2 brushes that cost $9 each. What was the total cost, not including tax, of the brushes and the paint they bought?
(A) $22, (B) $24, (C) $31, (D) $35
Answer: C
Solve for y. y – 2 + 3y = 10
(A) 2, (B) 3, (C) 4, (D) 5
Answer: B
Solve 3 over 2 * w = 66.
(A) 33, (B) 44, (C) 88, (D) 99
Answer: B
Write 5.875 as a mixed number or fraction in simplest form.
(A) 5 and 8 over 9, (B) 5 and 7 over 8, (C) 7 over 8, (D) 5 and 87 over 105
Answer: B
Solve the equation 124 = m + 34.
(A) 158, (B) 90, (C) 88, (D) 4,216
Answer: B
Zelma buys p pounds of bananas for 40 cents per pound. She pays the clerk with a twenty-dollar bill. The clerk subtracts the total cost of the bananas from the twenty-dollar bill to determine the amount of change to give Zelma. Which expression represents the amount of change Zelma should receive?
(A) p - 20, (B) 20 - 40p, (C) 20 - 0.40p, (D) 0.40p - 20
Answer: C
Please answer the following question with just the correct option (A, B, C, or D) without any explanation or additional text.
The variable x varies directly as the square of y, and y varies directly as the cube of z. If x equals -16 when z equals 2, what is the value of x when z equals 1/2?
(A) '-1', (B) '16', (C) '-1/256', (D) '1/16'
Answer:","","","","","","","","","","","","","","","","","","","","","","feedback_imgs/Correct.png"
"call-function","26","4126587","0.0-4.0-0.7","l53jgehrslhjz1h","5b16d24d388d8b00014fa6e6","67b62c430b9240ccd8986e70","67b631b38ff53dc7318c2ce0","0","","","","","","defer","Jane's quiz scores were 98, 97, 92, 85 and 93. What was her mean score?","[""92"",""93"",""94.5"",""95""]","C","B","modiste","","B","18","algLinUCB_0.9","diff-topics","high_school_mathematics","The following are multiple choice questions about high_school_mathematics.
Colton and his dad bought a gallon of paint that cost $13. They also bought 2 brushes that cost $9 each. What was the total cost, not including tax, of the brushes and the paint they bought?
(A) $22, (B) $24, (C) $31, (D) $35
Answer: C
Solve for y. y – 2 + 3y = 10
(A) 2, (B) 3, (C) 4, (D) 5
Answer: B
Solve 3 over 2 * w = 66.
(A) 33, (B) 44, (C) 88, (D) 99
Answer: B
Write 5.875 as a mixed number or fraction in simplest form.
(A) 5 and 8 over 9, (B) 5 and 7 over 8, (C) 7 over 8, (D) 5 and 87 over 105
Answer: B
Solve the equation 124 = m + 34.
(A) 158, (B) 90, (C) 88, (D) 4,216
Answer: B
Zelma buys p pounds of bananas for 40 cents per pound. She pays the clerk with a twenty-dollar bill. The clerk subtracts the total cost of the bananas from the twenty-dollar bill to determine the amount of change to give Zelma. Which expression represents the amount of change Zelma should receive?
(A) p - 20, (B) 20 - 40p, (C) 20 - 0.40p, (D) 0.40p - 20
Answer: C
Please answer the following question with just the correct option (A, B, C, or D) without any explanation or additional text.
Jane's quiz scores were 98, 97, 92, 85 and 93. What was her mean score?
(A) '92', (B) '93', (C) '94.5', (D) '95'
Answer:","","","","","","","","","","","","","","","","","","","","","",""
"survey-html-form","27","4187691","0.0-4.0-1.7","l53jgehrslhjz1h","5b16d24d388d8b00014fa6e6","67b62c430b9240ccd8986e70","67b631b38ff53dc7318c2ce0","0","61100.80000001192","","","{""mcAnswer"":""B""}","","","Jane's quiz scores were 98, 97, 92, 85 and 93. What was her mean score?","[""92"",""93"",""94.5"",""95""]","C","B","modiste","","B","18","algLinUCB_0.9","diff-topics","high_school_mathematics","The following are multiple choice questions about high_school_mathematics.
Colton and his dad bought a gallon of paint that cost $13. They also bought 2 brushes that cost $9 each. What was the total cost, not including tax, of the brushes and the paint they bought?
(A) $22, (B) $24, (C) $31, (D) $35
Answer: C
Solve for y. y – 2 + 3y = 10
(A) 2, (B) 3, (C) 4, (D) 5
Answer: B
Solve 3 over 2 * w = 66.
(A) 33, (B) 44, (C) 88, (D) 99
Answer: B
Write 5.875 as a mixed number or fraction in simplest form.
(A) 5 and 8 over 9, (B) 5 and 7 over 8, (C) 7 over 8, (D) 5 and 87 over 105
Answer: B
Solve the equation 124 = m + 34.
(A) 158, (B) 90, (C) 88, (D) 4,216
Answer: B
Zelma buys p pounds of bananas for 40 cents per pound. She pays the clerk with a twenty-dollar bill. The clerk subtracts the total cost of the bananas from the twenty-dollar bill to determine the amount of change to give Zelma. Which expression represents the amount of change Zelma should receive?
(A) p - 20, (B) 20 - 40p, (C) 20 - 0.40p, (D) 0.40p - 20
Answer: C
Please answer the following question with just the correct option (A, B, C, or D) without any explanation or additional text.
Jane's quiz scores were 98, 97, 92, 85 and 93. What was her mean score?
(A) '92', (B) '93', (C) '94.5', (D) '95'
Answer:","","","","","","","","","","","","","","","","","","","","","",""
"","","","","","","","","","","","","","","","","","","","","","","","","","","","B","","","","","","","","","","","","","","","","","","","","",""
"","","","","","","","","","","","","","","","","","","","","","","","","","","","","false","144","-1","C","true","false","defer","[]","false","0","false","0","{""elementary_mathematics"":[""41/51"",""31/50"",""5/7""],""high_school_mathematics"":[""27/50"",""23/52"",""4/6""],""college_mathematics"":[""22/50"",""27/51"",""3/6""]}","{""elementary_mathematics"":false,""college_mathematics"":false,""high_school_mathematics"":false}","You should attempt this problem by yourself","null","null","null","null","true",""
"image-keyboard-response","28","4189194","0.0-4.0-2.7","l53jgehrslhjz1h","5b16d24d388d8b00014fa6e6","67b62c430b9240ccd8986e70","67b631b38ff53dc7318c2ce0","0","null","","","null","","","Jane's quiz scores were 98, 97, 92, 85 and 93. What was her mean score?","[""92"",""93"",""94.5"",""95""]","C","B","modiste","","B","18","algLinUCB_0.9","diff-topics","high_school_mathematics","The following are multiple choice questions about high_school_mathematics.
Colton and his dad bought a gallon of paint that cost $13. They also bought 2 brushes that cost $9 each. What was the total cost, not including tax, of the brushes and the paint they bought?
(A) $22, (B) $24, (C) $31, (D) $35
Answer: C
Solve for y. y – 2 + 3y = 10
(A) 2, (B) 3, (C) 4, (D) 5
Answer: B
Solve 3 over 2 * w = 66.
(A) 33, (B) 44, (C) 88, (D) 99
Answer: B
Write 5.875 as a mixed number or fraction in simplest form.
(A) 5 and 8 over 9, (B) 5 and 7 over 8, (C) 7 over 8, (D) 5 and 87 over 105
Answer: B
Solve the equation 124 = m + 34.
(A) 158, (B) 90, (C) 88, (D) 4,216
Answer: B
Zelma buys p pounds of bananas for 40 cents per pound. She pays the clerk with a twenty-dollar bill. The clerk subtracts the total cost of the bananas from the twenty-dollar bill to determine the amount of change to give Zelma. Which expression represents the amount of change Zelma should receive?
(A) p - 20, (B) 20 - 40p, (C) 20 - 0.40p, (D) 0.40p - 20
Answer: C
Please answer the following question with just the correct option (A, B, C, or D) without any explanation or additional text.
Jane's quiz scores were 98, 97, 92, 85 and 93. What was her mean score?
(A) '92', (B) '93', (C) '94.5', (D) '95'
Answer:","","","","","","","","","","","","","","","","","","","","","","feedback_imgs/Correct.png"
"call-function","29","4189194","0.0-4.0-0.8","l53jgehrslhjz1h","5b16d24d388d8b00014fa6e6","67b62c430b9240ccd8986e70","67b631b38ff53dc7318c2ce0","0","","","","","","defer","Which of the following is true?","[""Every compact space is complete"",""Every complete space is compact"",""Neither (a) nor (b)."",""Both (a) and (b).""]","C","A","modiste","","A","49","algLinUCB_0.9","diff-topics","college_mathematics","The following are multiple choice questions about high_school_mathematics.
Colton and his dad bought a gallon of paint that cost $13. They also bought 2 brushes that cost $9 each. What was the total cost, not including tax, of the brushes and the paint they bought?
(A) $22, (B) $24, (C) $31, (D) $35
Answer: C
Solve for y. y – 2 + 3y = 10
(A) 2, (B) 3, (C) 4, (D) 5
Answer: B
Solve 3 over 2 * w = 66.
(A) 33, (B) 44, (C) 88, (D) 99
Answer: B
Write 5.875 as a mixed number or fraction in simplest form.
(A) 5 and 8 over 9, (B) 5 and 7 over 8, (C) 7 over 8, (D) 5 and 87 over 105
Answer: B
Solve the equation 124 = m + 34.
(A) 158, (B) 90, (C) 88, (D) 4,216
Answer: B
Zelma buys p pounds of bananas for 40 cents per pound. She pays the clerk with a twenty-dollar bill. The clerk subtracts the total cost of the bananas from the twenty-dollar bill to determine the amount of change to give Zelma. Which expression represents the amount of change Zelma should receive?
(A) p - 20, (B) 20 - 40p, (C) 20 - 0.40p, (D) 0.40p - 20
Answer: C
Please answer the following question with just the correct option (A, B, C, or D) without any explanation or additional text.
Let k be the number of real solutions of the equation e^x + x - 2 = 0 in the interval [0, 1], and let n be the number of real solutions that are not in [0, 1]. Which of the following is true?
(A) 'k = 0 and n = 1', (B) 'k = 1 and n = 0', (C) 'k = n = 1', (D) 'k > 1'
Answer:","","","","","","","","","","","","","","","","","","","","","",""
"survey-html-form","30","4206017","0.0-4.0-1.8","l53jgehrslhjz1h","5b16d24d388d8b00014fa6e6","67b62c430b9240ccd8986e70","67b631b38ff53dc7318c2ce0","0","16820.59999999404","","","{""mcAnswer"":""C""}","","","Which of the following is true?","[""Every compact space is complete"",""Every complete space is compact"",""Neither (a) nor (b)."",""Both (a) and (b).""]","C","A","modiste","","A","49","algLinUCB_0.9","diff-topics","college_mathematics","The following are multiple choice questions about high_school_mathematics.
Colton and his dad bought a gallon of paint that cost $13. They also bought 2 brushes that cost $9 each. What was the total cost, not including tax, of the brushes and the paint they bought?
(A) $22, (B) $24, (C) $31, (D) $35
Answer: C
Solve for y. y – 2 + 3y = 10
(A) 2, (B) 3, (C) 4, (D) 5
Answer: B
Solve 3 over 2 * w = 66.
(A) 33, (B) 44, (C) 88, (D) 99
Answer: B
Write 5.875 as a mixed number or fraction in simplest form.
(A) 5 and 8 over 9, (B) 5 and 7 over 8, (C) 7 over 8, (D) 5 and 87 over 105
Answer: B
Solve the equation 124 = m + 34.
(A) 158, (B) 90, (C) 88, (D) 4,216
Answer: B
Zelma buys p pounds of bananas for 40 cents per pound. She pays the clerk with a twenty-dollar bill. The clerk subtracts the total cost of the bananas from the twenty-dollar bill to determine the amount of change to give Zelma. Which expression represents the amount of change Zelma should receive?
(A) p - 20, (B) 20 - 40p, (C) 20 - 0.40p, (D) 0.40p - 20
Answer: C
Please answer the following question with just the correct option (A, B, C, or D) without any explanation or additional text.
Let k be the number of real solutions of the equation e^x + x - 2 = 0 in the interval [0, 1], and let n be the number of real solutions that are not in [0, 1]. Which of the following is true?
(A) 'k = 0 and n = 1', (B) 'k = 1 and n = 0', (C) 'k = n = 1', (D) 'k > 1'
Answer:","","","","","","","","","","","","","","","","","","","","","",""
"","","","","","","","","","","","","","","","","","","","","","","","","","","","C","","","","","","","","","","","","","","","","","","","","",""
"","","","","","","","","","","","","","","","","","","","","","","","","","","","","false","144","-1","C","false","false","defer","[]","false","0","false","0","{""elementary_mathematics"":[""41/51"",""31/50"",""5/7""],""high_school_mathematics"":[""27/50"",""23/52"",""4/6""],""college_mathematics"":[""22/50"",""27/51"",""3/7""]}","{""elementary_mathematics"":false,""college_mathematics"":true,""high_school_mathematics"":false}","You should outsource this problem to the AI agent","null","null","false","null","null",""
"image-keyboard-response","31","4207521","0.0-4.0-2.8","l53jgehrslhjz1h","5b16d24d388d8b00014fa6e6","67b62c430b9240ccd8986e70","67b631b38ff53dc7318c2ce0","0","null","","","null","","","Which of the following is true?","[""Every compact space is complete"",""Every complete space is compact"",""Neither (a) nor (b)."",""Both (a) and (b).""]","C","A","modiste","","A","49","algLinUCB_0.9","diff-topics","college_mathematics","The following are multiple choice questions about high_school_mathematics.
Colton and his dad bought a gallon of paint that cost $13. They also bought 2 brushes that cost $9 each. What was the total cost, not including tax, of the brushes and the paint they bought?
(A) $22, (B) $24, (C) $31, (D) $35
Answer: C
Solve for y. y – 2 + 3y = 10
(A) 2, (B) 3, (C) 4, (D) 5
Answer: B
Solve 3 over 2 * w = 66.
(A) 33, (B) 44, (C) 88, (D) 99
Answer: B
Write 5.875 as a mixed number or fraction in simplest form.
(A) 5 and 8 over 9, (B) 5 and 7 over 8, (C) 7 over 8, (D) 5 and 87 over 105
Answer: B
Solve the equation 124 = m + 34.
(A) 158, (B) 90, (C) 88, (D) 4,216
Answer: B
Zelma buys p pounds of bananas for 40 cents per pound. She pays the clerk with a twenty-dollar bill. The clerk subtracts the total cost of the bananas from the twenty-dollar bill to determine the amount of change to give Zelma. Which expression represents the amount of change Zelma should receive?
(A) p - 20, (B) 20 - 40p, (C) 20 - 0.40p, (D) 0.40p - 20
Answer: C
Please answer the following question with just the correct option (A, B, C, or D) without any explanation or additional text.
Let k be the number of real solutions of the equation e^x + x - 2 = 0 in the interval [0, 1], and let n be the number of real solutions that are not in [0, 1]. Which of the following is true?
(A) 'k = 0 and n = 1', (B) 'k = 1 and n = 0', (C) 'k = n = 1', (D) 'k > 1'
Answer:","","","","","","","","","","","","","","","","","","","","","","feedback_imgs/Incorrect.png"
"call-function","32","4207522","0.0-4.0-0.9","l53jgehrslhjz1h","5b16d24d388d8b00014fa6e6","67b62c430b9240ccd8986e70","67b631b38ff53dc7318c2ce0","0","","","","","","defer","A soccer team has 90.00 to buy soccer balls. If one soccer ball costs 15.60, what is the greatest number of soccer balls the team can buy?","[""4"",""5"",""6"",""7""]","B","B","modiste","","B","23","algLinUCB_0.9","diff-topics","elementary_mathematics","The following are multiple choice questions about high_school_mathematics.
Colton and his dad bought a gallon of paint that cost $13. They also bought 2 brushes that cost $9 each. What was the total cost, not including tax, of the brushes and the paint they bought?
(A) $22, (B) $24, (C) $31, (D) $35
Answer: C
Solve for y. y – 2 + 3y = 10
(A) 2, (B) 3, (C) 4, (D) 5
Answer: B
Solve 3 over 2 * w = 66.
(A) 33, (B) 44, (C) 88, (D) 99
Answer: B
Write 5.875 as a mixed number or fraction in simplest form.
(A) 5 and 8 over 9, (B) 5 and 7 over 8, (C) 7 over 8, (D) 5 and 87 over 105
Answer: B
Solve the equation 124 = m + 34.
(A) 158, (B) 90, (C) 88, (D) 4,216
Answer: B
Zelma buys p pounds of bananas for 40 cents per pound. She pays the clerk with a twenty-dollar bill. The clerk subtracts the total cost of the bananas from the twenty-dollar bill to determine the amount of change to give Zelma. Which expression represents the amount of change Zelma should receive?
(A) p - 20, (B) 20 - 40p, (C) 20 - 0.40p, (D) 0.40p - 20
Answer: C
Please answer the following question with just the correct option (A, B, C, or D) without any explanation or additional text.
A soccer team has 90.00 to buy soccer balls. If one soccer ball costs 15.60, what is the greatest number of soccer balls the team can buy?
(A) '4', (B) '5', (C) '6', (D) '7'
Answer:","","","","","","","","","","","","","","","","","","","","","",""
"survey-html-form","33","4227283","0.0-4.0-1.9","l53jgehrslhjz1h","5b16d24d388d8b00014fa6e6","67b62c430b9240ccd8986e70","67b631b38ff53dc7318c2ce0","0","19756.70000001788","","","{""mcAnswer"":""B""}","","","A soccer team has 90.00 to buy soccer balls. If one soccer ball costs 15.60, what is the greatest number of soccer balls the team can buy?","[""4"",""5"",""6"",""7""]","B","B","modiste","","B","23","algLinUCB_0.9","diff-topics","elementary_mathematics","The following are multiple choice questions about high_school_mathematics.
Colton and his dad bought a gallon of paint that cost $13. They also bought 2 brushes that cost $9 each. What was the total cost, not including tax, of the brushes and the paint they bought?
(A) $22, (B) $24, (C) $31, (D) $35
Answer: C
Solve for y. y – 2 + 3y = 10
(A) 2, (B) 3, (C) 4, (D) 5
Answer: B
Solve 3 over 2 * w = 66.
(A) 33, (B) 44, (C) 88, (D) 99
Answer: B
Write 5.875 as a mixed number or fraction in simplest form.
(A) 5 and 8 over 9, (B) 5 and 7 over 8, (C) 7 over 8, (D) 5 and 87 over 105
Answer: B
Solve the equation 124 = m + 34.
(A) 158, (B) 90, (C) 88, (D) 4,216
Answer: B
Zelma buys p pounds of bananas for 40 cents per pound. She pays the clerk with a twenty-dollar bill. The clerk subtracts the total cost of the bananas from the twenty-dollar bill to determine the amount of change to give Zelma. Which expression represents the amount of change Zelma should receive?
(A) p - 20, (B) 20 - 40p, (C) 20 - 0.40p, (D) 0.40p - 20
Answer: C
Please answer the following question with just the correct option (A, B, C, or D) without any explanation or additional text.
A soccer team has 90.00 to buy soccer balls. If one soccer ball costs 15.60, what is the greatest number of soccer balls the team can buy?
(A) '4', (B) '5', (C) '6', (D) '7'
Answer:","","","","","","","","","","","","","","","","","","","","","",""
"","","","","","","","","","","","","","","","","","","","","","","","","","","","B","","","","","","","","","","","","","","","","","","","","",""
"","","","","","","","","","","","","","","","","","","","","","","","","","","","","false","154","-1","B","true","true","defer","[]","false","0","false","0","{""elementary_mathematics"":[""41/51"",""31/50"",""6/8""],""high_school_mathematics"":[""27/50"",""23/52"",""4/6""],""college_mathematics"":[""22/50"",""27/51"",""3/7""]}","{""elementary_mathematics"":false,""college_mathematics"":true,""high_school_mathematics"":false}","You should outsource this problem to a human agent","null","null","null","false","null",""
"image-keyboard-response","34","4228787","0.0-4.0-2.9","l53jgehrslhjz1h","5b16d24d388d8b00014fa6e6","67b62c430b9240ccd8986e70","67b631b38ff53dc7318c2ce0","0","null","","","null","","","A soccer team has 90.00 to buy soccer balls. If one soccer ball costs 15.60, what is the greatest number of soccer balls the team can buy?","[""4"",""5"",""6"",""7""]","B","B","modiste","","B","23","algLinUCB_0.9","diff-topics","elementary_mathematics","The following are multiple choice questions about high_school_mathematics.
Colton and his dad bought a gallon of paint that cost $13. They also bought 2 brushes that cost $9 each. What was the total cost, not including tax, of the brushes and the paint they bought?
(A) $22, (B) $24, (C) $31, (D) $35
Answer: C
Solve for y. y – 2 + 3y = 10
(A) 2, (B) 3, (C) 4, (D) 5
Answer: B
Solve 3 over 2 * w = 66.
(A) 33, (B) 44, (C) 88, (D) 99
Answer: B
Write 5.875 as a mixed number or fraction in simplest form.
(A) 5 and 8 over 9, (B) 5 and 7 over 8, (C) 7 over 8, (D) 5 and 87 over 105
Answer: B
Solve the equation 124 = m + 34.
(A) 158, (B) 90, (C) 88, (D) 4,216
Answer: B
Zelma buys p pounds of bananas for 40 cents per pound. She pays the clerk with a twenty-dollar bill. The clerk subtracts the total cost of the bananas from the twenty-dollar bill to determine the amount of change to give Zelma. Which expression represents the amount of change Zelma should receive?
(A) p - 20, (B) 20 - 40p, (C) 20 - 0.40p, (D) 0.40p - 20
Answer: C
Please answer the following question with just the correct option (A, B, C, or D) without any explanation or additional text.
A soccer team has 90.00 to buy soccer balls. If one soccer ball costs 15.60, what is the greatest number of soccer balls the team can buy?
(A) '4', (B) '5', (C) '6', (D) '7'
Answer:","","","","","","","","","","","","","","","","","","","","","","feedback_imgs/Correct.png"
"call-function","35","4228787","0.0-4.0-0.10","l53jgehrslhjz1h","5b16d24d388d8b00014fa6e6","67b62c430b9240ccd8986e70","67b631b38ff53dc7318c2ce0","0","","","","","","defer","The length of a rectangle is twice its width. Given the length of the diagonal is 5sqrt{5}, find the area of the rectangle.","[""2500"",""2"",""50"",""25""]","D","C","modiste","","C","6","algLinUCB_0.9","diff-topics","high_school_mathematics","The following are multiple choice questions about high_school_mathematics.
Colton and his dad bought a gallon of paint that cost $13. They also bought 2 brushes that cost $9 each. What was the total cost, not including tax, of the brushes and the paint they bought?
(A) $22, (B) $24, (C) $31, (D) $35
Answer: C
Solve for y. y – 2 + 3y = 10
(A) 2, (B) 3, (C) 4, (D) 5
Answer: B
Solve 3 over 2 * w = 66.
(A) 33, (B) 44, (C) 88, (D) 99
Answer: B
Write 5.875 as a mixed number or fraction in simplest form.
(A) 5 and 8 over 9, (B) 5 and 7 over 8, (C) 7 over 8, (D) 5 and 87 over 105
Answer: B
Solve the equation 124 = m + 34.
(A) 158, (B) 90, (C) 88, (D) 4,216
Answer: B
Zelma buys p pounds of bananas for 40 cents per pound. She pays the clerk with a twenty-dollar bill. The clerk subtracts the total cost of the bananas from the twenty-dollar bill to determine the amount of change to give Zelma. Which expression represents the amount of change Zelma should receive?
(A) p - 20, (B) 20 - 40p, (C) 20 - 0.40p, (D) 0.40p - 20
Answer: C
Please answer the following question with just the correct option (A, B, C, or D) without any explanation or additional text.
The length of a rectangle is twice its width. Given the length of the diagonal is 5sqrt{5}, find the area of the rectangle.
(A) '2500', (B) '2', (C) '50', (D) '25'
Answer:","","","","","","","","","","","","true","2","","","","","","","","",""
"survey-html-form","36","4248816","0.0-4.0-1.10","l53jgehrslhjz1h","5b16d24d388d8b00014fa6e6","67b62c430b9240ccd8986e70","67b631b38ff53dc7318c2ce0","0","20024.40000000596","","","{""mcAnswer"":""D""}","","","The length of a rectangle is twice its width. Given the length of the diagonal is 5sqrt{5}, find the area of the rectangle.","[""2500"",""2"",""50"",""25""]","D","C","modiste","","C","6","algLinUCB_0.9","diff-topics","high_school_mathematics","The following are multiple choice questions about high_school_mathematics.
Colton and his dad bought a gallon of paint that cost $13. They also bought 2 brushes that cost $9 each. What was the total cost, not including tax, of the brushes and the paint they bought?
(A) $22, (B) $24, (C) $31, (D) $35
Answer: C
Solve for y. y – 2 + 3y = 10
(A) 2, (B) 3, (C) 4, (D) 5
Answer: B
Solve 3 over 2 * w = 66.
(A) 33, (B) 44, (C) 88, (D) 99
Answer: B
Write 5.875 as a mixed number or fraction in simplest form.
(A) 5 and 8 over 9, (B) 5 and 7 over 8, (C) 7 over 8, (D) 5 and 87 over 105
Answer: B
Solve the equation 124 = m + 34.
(A) 158, (B) 90, (C) 88, (D) 4,216
Answer: B
Zelma buys p pounds of bananas for 40 cents per pound. She pays the clerk with a twenty-dollar bill. The clerk subtracts the total cost of the bananas from the twenty-dollar bill to determine the amount of change to give Zelma. Which expression represents the amount of change Zelma should receive?
(A) p - 20, (B) 20 - 40p, (C) 20 - 0.40p, (D) 0.40p - 20
Answer: C
Please answer the following question with just the correct option (A, B, C, or D) without any explanation or additional text.
The length of a rectangle is twice its width. Given the length of the diagonal is 5sqrt{5}, find the area of the rectangle.
(A) '2500', (B) '2', (C) '50', (D) '25'
Answer:","","","","","","","","","","","","","","","","","","","","","",""
"","","","","","","","","","","","","","","","","","","","","","","","","","","","D","","","","","","","","","","","","","","","","","","","","",""
"","","","","","","","","","","","","","","","","","","","","","","","","","","","","false","151","-1","D","false","false","defer","[]","false","0","true","2","{""elementary_mathematics"":[""41/51"",""31/50"",""6/8""],""high_school_mathematics"":[""27/50"",""23/53"",""4/6""],""college_mathematics"":[""22/50"",""27/51"",""3/7""]}","{""elementary_mathematics"":false,""college_mathematics"":true,""high_school_mathematics"":false}","You should attempt this problem by yourself","false","null","null","null","false",""
"image-keyboard-response","37","4250319","0.0-4.0-2.10","l53jgehrslhjz1h","5b16d24d388d8b00014fa6e6","67b62c430b9240ccd8986e70","67b631b38ff53dc7318c2ce0","0","null","","","null","","","The length of a rectangle is twice its width. Given the length of the diagonal is 5sqrt{5}, find the area of the rectangle.","[""2500"",""2"",""50"",""25""]","D","C","modiste","","C","6","algLinUCB_0.9","diff-topics","high_school_mathematics","The following are multiple choice questions about high_school_mathematics.
Colton and his dad bought a gallon of paint that cost $13. They also bought 2 brushes that cost $9 each. What was the total cost, not including tax, of the brushes and the paint they bought?
(A) $22, (B) $24, (C) $31, (D) $35
Answer: C
Solve for y. y – 2 + 3y = 10
(A) 2, (B) 3, (C) 4, (D) 5
Answer: B
Solve 3 over 2 * w = 66.
(A) 33, (B) 44, (C) 88, (D) 99
Answer: B
Write 5.875 as a mixed number or fraction in simplest form.
(A) 5 and 8 over 9, (B) 5 and 7 over 8, (C) 7 over 8, (D) 5 and 87 over 105
Answer: B
Solve the equation 124 = m + 34.
(A) 158, (B) 90, (C) 88, (D) 4,216
Answer: B
Zelma buys p pounds of bananas for 40 cents per pound. She pays the clerk with a twenty-dollar bill. The clerk subtracts the total cost of the bananas from the twenty-dollar bill to determine the amount of change to give Zelma. Which expression represents the amount of change Zelma should receive?
(A) p - 20, (B) 20 - 40p, (C) 20 - 0.40p, (D) 0.40p - 20
Answer: C
Please answer the following question with just the correct option (A, B, C, or D) without any explanation or additional text.
The length of a rectangle is twice its width. Given the length of the diagonal is 5sqrt{5}, find the area of the rectangle.
(A) '2500', (B) '2', (C) '50', (D) '25'
Answer:","","","","","","","","","","","","","","","","","","","","","","feedback_imgs/Incorrect.png"
"call-function","38","4250320","0.0-4.0-0.11","l53jgehrslhjz1h","5b16d24d388d8b00014fa6e6","67b62c430b9240ccd8986e70","67b631b38ff53dc7318c2ce0","0","","","","","","defer","Ms. Perez drove a total of 40 miles in 5 days. She drove the same number of miles each day. How many miles did Ms. Perez drive each day?","[""5"",""7"",""8"",""9""]","A","C","modiste","","C","21","algLinUCB_0.9","diff-topics","elementary_mathematics","The following are multiple choice questions about high_school_mathematics.
Colton and his dad bought a gallon of paint that cost $13. They also bought 2 brushes that cost $9 each. What was the total cost, not including tax, of the brushes and the paint they bought?
(A) $22, (B) $24, (C) $31, (D) $35
Answer: C
Solve for y. y – 2 + 3y = 10
(A) 2, (B) 3, (C) 4, (D) 5
Answer: B
Solve 3 over 2 * w = 66.
(A) 33, (B) 44, (C) 88, (D) 99
Answer: B
Write 5.875 as a mixed number or fraction in simplest form.
(A) 5 and 8 over 9, (B) 5 and 7 over 8, (C) 7 over 8, (D) 5 and 87 over 105
Answer: B
Solve the equation 124 = m + 34.
(A) 158, (B) 90, (C) 88, (D) 4,216
Answer: B
Zelma buys p pounds of bananas for 40 cents per pound. She pays the clerk with a twenty-dollar bill. The clerk subtracts the total cost of the bananas from the twenty-dollar bill to determine the amount of change to give Zelma. Which expression represents the amount of change Zelma should receive?
(A) p - 20, (B) 20 - 40p, (C) 20 - 0.40p, (D) 0.40p - 20
Answer: C
Please answer the following question with just the correct option (A, B, C, or D) without any explanation or additional text.
Ms. Perez drove a total of 40 miles in 5 days. She drove the same number of miles each day. How many miles did Ms. Perez drive each day?
(A) '5', (B) '7', (C) '8', (D) '9'
Answer:","","","","","","","","","","","","","","","","","","","","","",""
"survey-html-form","39","4271214","0.0-4.0-1.11","l53jgehrslhjz1h","5b16d24d388d8b00014fa6e6","67b62c430b9240ccd8986e70","67b631b38ff53dc7318c2ce0","0","20889.70000001788","","","{""mcAnswer"":""C""}","","","Ms. Perez drove a total of 40 miles in 5 days. She drove the same number of miles each day. How many miles did Ms. Perez drive each day?","[""5"",""7"",""8"",""9""]","A","C","modiste","","C","21","algLinUCB_0.9","diff-topics","elementary_mathematics","The following are multiple choice questions about high_school_mathematics.
Colton and his dad bought a gallon of paint that cost $13. They also bought 2 brushes that cost $9 each. What was the total cost, not including tax, of the brushes and the paint they bought?
(A) $22, (B) $24, (C) $31, (D) $35
Answer: C
Solve for y. y – 2 + 3y = 10
(A) 2, (B) 3, (C) 4, (D) 5
Answer: B
Solve 3 over 2 * w = 66.
(A) 33, (B) 44, (C) 88, (D) 99
Answer: B
Write 5.875 as a mixed number or fraction in simplest form.
(A) 5 and 8 over 9, (B) 5 and 7 over 8, (C) 7 over 8, (D) 5 and 87 over 105
Answer: B
Solve the equation 124 = m + 34.
(A) 158, (B) 90, (C) 88, (D) 4,216
Answer: B
Zelma buys p pounds of bananas for 40 cents per pound. She pays the clerk with a twenty-dollar bill. The clerk subtracts the total cost of the bananas from the twenty-dollar bill to determine the amount of change to give Zelma. Which expression represents the amount of change Zelma should receive?
(A) p - 20, (B) 20 - 40p, (C) 20 - 0.40p, (D) 0.40p - 20
Answer: C
Please answer the following question with just the correct option (A, B, C, or D) without any explanation or additional text.
Ms. Perez drove a total of 40 miles in 5 days. She drove the same number of miles each day. How many miles did Ms. Perez drive each day?
(A) '5', (B) '7', (C) '8', (D) '9'
Answer:","","","","","","","","","","","","","","","","","","","","","",""
"","","","","","","","","","","","","","","","","","","","","","","","","","","","C","","","","","","","","","","","","","","","","","","","","",""
"","","","","","","","","","","","","","","","","","","","","","","","","","","","","false","161","-1","A","true","false","defer","[]","false","0","false","0","{""elementary_mathematics"":[""41/51"",""31/50"",""7/9""],""high_school_mathematics"":[""27/50"",""23/53"",""4/6""],""college_mathematics"":[""22/50"",""27/51"",""3/7""]}","{""elementary_mathematics"":false,""college_mathematics"":true,""high_school_mathematics"":false}","You should outsource this problem to a human agent","null","null","null","false","null",""
"image-keyboard-response","40","4272717","0.0-4.0-2.11","l53jgehrslhjz1h","5b16d24d388d8b00014fa6e6","67b62c430b9240ccd8986e70","67b631b38ff53dc7318c2ce0","0","null","","","null","","","Ms. Perez drove a total of 40 miles in 5 days. She drove the same number of miles each day. How many miles did Ms. Perez drive each day?","[""5"",""7"",""8"",""9""]","A","C","modiste","","C","21","algLinUCB_0.9","diff-topics","elementary_mathematics","The following are multiple choice questions about high_school_mathematics.
Colton and his dad bought a gallon of paint that cost $13. They also bought 2 brushes that cost $9 each. What was the total cost, not including tax, of the brushes and the paint they bought?
(A) $22, (B) $24, (C) $31, (D) $35
Answer: C
Solve for y. y – 2 + 3y = 10
(A) 2, (B) 3, (C) 4, (D) 5
Answer: B
Solve 3 over 2 * w = 66.
(A) 33, (B) 44, (C) 88, (D) 99
Answer: B
Write 5.875 as a mixed number or fraction in simplest form.
(A) 5 and 8 over 9, (B) 5 and 7 over 8, (C) 7 over 8, (D) 5 and 87 over 105
Answer: B
Solve the equation 124 = m + 34.
(A) 158, (B) 90, (C) 88, (D) 4,216
Answer: B
Zelma buys p pounds of bananas for 40 cents per pound. She pays the clerk with a twenty-dollar bill. The clerk subtracts the total cost of the bananas from the twenty-dollar bill to determine the amount of change to give Zelma. Which expression represents the amount of change Zelma should receive?
(A) p - 20, (B) 20 - 40p, (C) 20 - 0.40p, (D) 0.40p - 20
Answer: C
Please answer the following question with just the correct option (A, B, C, or D) without any explanation or additional text.
Ms. Perez drove a total of 40 miles in 5 days. She drove the same number of miles each day. How many miles did Ms. Perez drive each day?
(A) '5', (B) '7', (C) '8', (D) '9'
Answer:","","","","","","","","","","","","","","","","","","","","","","feedback_imgs/Correct.png"
"call-function","41","4272718","0.0-4.0-0.12","l53jgehrslhjz1h","5b16d24d388d8b00014fa6e6","67b62c430b9240ccd8986e70","67b631b38ff53dc7318c2ce0","0","","","","","","defer","Maddie will ride her bike a total of 56 miles over 7 days. She will ride the same number of miles each day. What is the total number of miles Maddie will ride each day?","[""8"",""9"",""49"",""63""]","A","A","modiste","","A","32","algLinUCB_0.9","diff-topics","elementary_mathematics","The following are multiple choice questions about high_school_mathematics.
Colton and his dad bought a gallon of paint that cost $13. They also bought 2 brushes that cost $9 each. What was the total cost, not including tax, of the brushes and the paint they bought?
(A) $22, (B) $24, (C) $31, (D) $35
Answer: C
Solve for y. y – 2 + 3y = 10
(A) 2, (B) 3, (C) 4, (D) 5
Answer: B
Solve 3 over 2 * w = 66.
(A) 33, (B) 44, (C) 88, (D) 99
Answer: B
Write 5.875 as a mixed number or fraction in simplest form.
(A) 5 and 8 over 9, (B) 5 and 7 over 8, (C) 7 over 8, (D) 5 and 87 over 105
Answer: B
Solve the equation 124 = m + 34.
(A) 158, (B) 90, (C) 88, (D) 4,216
Answer: B
Zelma buys p pounds of bananas for 40 cents per pound. She pays the clerk with a twenty-dollar bill. The clerk subtracts the total cost of the bananas from the twenty-dollar bill to determine the amount of change to give Zelma. Which expression represents the amount of change Zelma should receive?
(A) p - 20, (B) 20 - 40p, (C) 20 - 0.40p, (D) 0.40p - 20
Answer: C
Please answer the following question with just the correct option (A, B, C, or D) without any explanation or additional text.
Maddie will ride her bike a total of 56 miles over 7 days. She will ride the same number of miles each day. What is the total number of miles Maddie will ride each day?
(A) '8', (B) '9', (C) '49', (D) '63'
Answer:","","","","","","","","","","","","","","","","","","","","","",""
"survey-html-form","42","4302753","0.0-4.0-1.12","l53jgehrslhjz1h","5b16d24d388d8b00014fa6e6","67b62c430b9240ccd8986e70","67b631b38ff53dc7318c2ce0","0","30032.30000001192","","","{""mcAnswer"":""A""}","","","Maddie will ride her bike a total of 56 miles over 7 days. She will ride the same number of miles each day. What is the total number of miles Maddie will ride each day?","[""8"",""9"",""49"",""63""]","A","A","modiste","","A","32","algLinUCB_0.9","diff-topics","elementary_mathematics","The following are multiple choice questions about high_school_mathematics.
Colton and his dad bought a gallon of paint that cost $13. They also bought 2 brushes that cost $9 each. What was the total cost, not including tax, of the brushes and the paint they bought?
(A) $22, (B) $24, (C) $31, (D) $35
Answer: C
Solve for y. y – 2 + 3y = 10
(A) 2, (B) 3, (C) 4, (D) 5
Answer: B
Solve 3 over 2 * w = 66.
(A) 33, (B) 44, (C) 88, (D) 99
Answer: B
Write 5.875 as a mixed number or fraction in simplest form.
(A) 5 and 8 over 9, (B) 5 and 7 over 8, (C) 7 over 8, (D) 5 and 87 over 105
Answer: B
Solve the equation 124 = m + 34.
(A) 158, (B) 90, (C) 88, (D) 4,216
Answer: B
Zelma buys p pounds of bananas for 40 cents per pound. She pays the clerk with a twenty-dollar bill. The clerk subtracts the total cost of the bananas from the twenty-dollar bill to determine the amount of change to give Zelma. Which expression represents the amount of change Zelma should receive?
(A) p - 20, (B) 20 - 40p, (C) 20 - 0.40p, (D) 0.40p - 20
Answer: C
Please answer the following question with just the correct option (A, B, C, or D) without any explanation or additional text.
Maddie will ride her bike a total of 56 miles over 7 days. She will ride the same number of miles each day. What is the total number of miles Maddie will ride each day?
(A) '8', (B) '9', (C) '49', (D) '63'
Answer:","","","","","","","","","","","","","","","","","","","","","",""
"","","","","","","","","","","","","","","","","","","","","","","","","","","","A","","","","","","","","","","","","","","","","","","","","",""
"","","","","","","","","","","","","","","","","","","","","","","","","","","","","false","171","-1","A","true","true","defer","[]","false","0","false","0","{""elementary_mathematics"":[""41/51"",""31/50"",""8/10""],""high_school_mathematics"":[""27/50"",""23/53"",""4/6""],""college_mathematics"":[""22/50"",""27/51"",""3/7""]}","{""elementary_mathematics"":false,""college_mathematics"":true,""high_school_mathematics"":false}","You should outsource this problem to a human agent","null","null","null","false","null",""
"image-keyboard-response","43","4304258","0.0-4.0-2.12","l53jgehrslhjz1h","5b16d24d388d8b00014fa6e6","67b62c430b9240ccd8986e70","67b631b38ff53dc7318c2ce0","0","null","","","null","","","Maddie will ride her bike a total of 56 miles over 7 days. She will ride the same number of miles each day. What is the total number of miles Maddie will ride each day?","[""8"",""9"",""49"",""63""]","A","A","modiste","","A","32","algLinUCB_0.9","diff-topics","elementary_mathematics","The following are multiple choice questions about high_school_mathematics.
Colton and his dad bought a gallon of paint that cost $13. They also bought 2 brushes that cost $9 each. What was the total cost, not including tax, of the brushes and the paint they bought?
(A) $22, (B) $24, (C) $31, (D) $35
Answer: C
Solve for y. y – 2 + 3y = 10
(A) 2, (B) 3, (C) 4, (D) 5
Answer: B
Solve 3 over 2 * w = 66.
(A) 33, (B) 44, (C) 88, (D) 99
Answer: B
Write 5.875 as a mixed number or fraction in simplest form.
(A) 5 and 8 over 9, (B) 5 and 7 over 8, (C) 7 over 8, (D) 5 and 87 over 105
Answer: B
Solve the equation 124 = m + 34.
(A) 158, (B) 90, (C) 88, (D) 4,216
Answer: B
Zelma buys p pounds of bananas for 40 cents per pound. She pays the clerk with a twenty-dollar bill. The clerk subtracts the total cost of the bananas from the twenty-dollar bill to determine the amount of change to give Zelma. Which expression represents the amount of change Zelma should receive?
(A) p - 20, (B) 20 - 40p, (C) 20 - 0.40p, (D) 0.40p - 20
Answer: C
Please answer the following question with just the correct option (A, B, C, or D) without any explanation or additional text.
Maddie will ride her bike a total of 56 miles over 7 days. She will ride the same number of miles each day. What is the total number of miles Maddie will ride each day?
(A) '8', (B) '9', (C) '49', (D) '63'
Answer:","","","","","","","","","","","","","","","","","","","","","","feedback_imgs/Correct.png"
"call-function","44","4304258","0.0-4.0-0.13","l53jgehrslhjz1h","5b16d24d388d8b00014fa6e6","67b62c430b9240ccd8986e70","67b631b38ff53dc7318c2ce0","0","","","","","","defer","Use the expression below to answer the question. 3 × [(2 × 6 – 5) + (8 ÷ 4)] – 1 What is the value of the expression?","[""9"",""11"",""26"",""32""]","B","C","modiste","","C","25","algLinUCB_0.9","diff-topics","elementary_mathematics","The following are multiple choice questions about high_school_mathematics.
Colton and his dad bought a gallon of paint that cost $13. They also bought 2 brushes that cost $9 each. What was the total cost, not including tax, of the brushes and the paint they bought?
(A) $22, (B) $24, (C) $31, (D) $35
Answer: C
Solve for y. y – 2 + 3y = 10
(A) 2, (B) 3, (C) 4, (D) 5
Answer: B
Solve 3 over 2 * w = 66.
(A) 33, (B) 44, (C) 88, (D) 99
Answer: B
Write 5.875 as a mixed number or fraction in simplest form.
(A) 5 and 8 over 9, (B) 5 and 7 over 8, (C) 7 over 8, (D) 5 and 87 over 105
Answer: B
Solve the equation 124 = m + 34.
(A) 158, (B) 90, (C) 88, (D) 4,216
Answer: B
Zelma buys p pounds of bananas for 40 cents per pound. She pays the clerk with a twenty-dollar bill. The clerk subtracts the total cost of the bananas from the twenty-dollar bill to determine the amount of change to give Zelma. Which expression represents the amount of change Zelma should receive?
(A) p - 20, (B) 20 - 40p, (C) 20 - 0.40p, (D) 0.40p - 20
Answer: C
Please answer the following question with just the correct option (A, B, C, or D) without any explanation or additional text.
Use the expression below to answer the question. 3 × [(2 × 6 – 5) + (8 ÷ 4)] – 1 What is the value of the expression?
(A) '9', (B) '11', (C) '26', (D) '32'
Answer:","","","","","","","","","","","","true","2","","","","","","","","",""
"survey-html-form","45","4317985","0.0-4.0-1.13","l53jgehrslhjz1h","5b16d24d388d8b00014fa6e6","67b62c430b9240ccd8986e70","67b631b38ff53dc7318c2ce0","0","13720.59999999404","","","{""mcAnswer"":""B""}","","","Use the expression below to answer the question. 3 × [(2 × 6 – 5) + (8 ÷ 4)] – 1 What is the value of the expression?","[""9"",""11"",""26"",""32""]","B","C","modiste","","C","25","algLinUCB_0.9","diff-topics","elementary_mathematics","The following are multiple choice questions about high_school_mathematics.
Colton and his dad bought a gallon of paint that cost $13. They also bought 2 brushes that cost $9 each. What was the total cost, not including tax, of the brushes and the paint they bought?
(A) $22, (B) $24, (C) $31, (D) $35
Answer: C
Solve for y. y – 2 + 3y = 10
(A) 2, (B) 3, (C) 4, (D) 5
Answer: B
Solve 3 over 2 * w = 66.
(A) 33, (B) 44, (C) 88, (D) 99
Answer: B
Write 5.875 as a mixed number or fraction in simplest form.
(A) 5 and 8 over 9, (B) 5 and 7 over 8, (C) 7 over 8, (D) 5 and 87 over 105
Answer: B
Solve the equation 124 = m + 34.
(A) 158, (B) 90, (C) 88, (D) 4,216
Answer: B
Zelma buys p pounds of bananas for 40 cents per pound. She pays the clerk with a twenty-dollar bill. The clerk subtracts the total cost of the bananas from the twenty-dollar bill to determine the amount of change to give Zelma. Which expression represents the amount of change Zelma should receive?
(A) p - 20, (B) 20 - 40p, (C) 20 - 0.40p, (D) 0.40p - 20
Answer: C
Please answer the following question with just the correct option (A, B, C, or D) without any explanation or additional text.
Use the expression below to answer the question. 3 × [(2 × 6 – 5) + (8 ÷ 4)] – 1 What is the value of the expression?
(A) '9', (B) '11', (C) '26', (D) '32'
Answer:","","","","","","","","","","","","","","","","","","","","","",""
"","","","","","","","","","","","","","","","","","","","","","","","","","","","B","","","","","","","","","","","","","","","","","","","","",""
"","","","","","","","","","","","","","","","","","","","","","","","","","","","","false","168","-1","B","false","false","defer","[]","false","0","true","2","{""elementary_mathematics"":[""41/51"",""31/51"",""8/10""],""high_school_mathematics"":[""27/50"",""23/53"",""4/6""],""college_mathematics"":[""22/50"",""27/51"",""3/7""]}","{""elementary_mathematics"":false,""college_mathematics"":true,""high_school_mathematics"":false}","You should outsource this problem to a human agent","false","null","null","false","null",""
"image-keyboard-response","46","4319489","0.0-4.0-2.13","l53jgehrslhjz1h","5b16d24d388d8b00014fa6e6","67b62c430b9240ccd8986e70","67b631b38ff53dc7318c2ce0","0","null","","","null","","","Use the expression below to answer the question. 3 × [(2 × 6 – 5) + (8 ÷ 4)] – 1 What is the value of the expression?","[""9"",""11"",""26"",""32""]","B","C","modiste","","C","25","algLinUCB_0.9","diff-topics","elementary_mathematics","The following are multiple choice questions about high_school_mathematics.
Colton and his dad bought a gallon of paint that cost $13. They also bought 2 brushes that cost $9 each. What was the total cost, not including tax, of the brushes and the paint they bought?
(A) $22, (B) $24, (C) $31, (D) $35
Answer: C
Solve for y. y – 2 + 3y = 10
(A) 2, (B) 3, (C) 4, (D) 5
Answer: B
Solve 3 over 2 * w = 66.
(A) 33, (B) 44, (C) 88, (D) 99
Answer: B
Write 5.875 as a mixed number or fraction in simplest form.
(A) 5 and 8 over 9, (B) 5 and 7 over 8, (C) 7 over 8, (D) 5 and 87 over 105
Answer: B
Solve the equation 124 = m + 34.
(A) 158, (B) 90, (C) 88, (D) 4,216
Answer: B
Zelma buys p pounds of bananas for 40 cents per pound. She pays the clerk with a twenty-dollar bill. The clerk subtracts the total cost of the bananas from the twenty-dollar bill to determine the amount of change to give Zelma. Which expression represents the amount of change Zelma should receive?
(A) p - 20, (B) 20 - 40p, (C) 20 - 0.40p, (D) 0.40p - 20
Answer: C
Please answer the following question with just the correct option (A, B, C, or D) without any explanation or additional text.
Use the expression below to answer the question. 3 × [(2 × 6 – 5) + (8 ÷ 4)] – 1 What is the value of the expression?
(A) '9', (B) '11', (C) '26', (D) '32'
Answer:","","","","","","","","","","","","","","","","","","","","","","feedback_imgs/Incorrect.png"
"call-function","47","4319490","0.0-4.0-0.14","l53jgehrslhjz1h","5b16d24d388d8b00014fa6e6","67b62c430b9240ccd8986e70","67b631b38ff53dc7318c2ce0","0","","","","","","defer","Jack picks 60 apples from an apple tree. He uses 12 of them to make applesauce. He places the remaining apples equally into 6 gift baskets. Which equation can be used to determine the numberof apples, a, that Jack places into each gift basket?","[""(60/6)—12=a"",""(60—12)/6=a"",""(60-6)-12=a"",""(60+12)/6=a""]","B","B","modiste","","B","37","algLinUCB_0.9","diff-topics","elementary_mathematics","The following are multiple choice questions about high_school_mathematics.
Colton and his dad bought a gallon of paint that cost $13. They also bought 2 brushes that cost $9 each. What was the total cost, not including tax, of the brushes and the paint they bought?
(A) $22, (B) $24, (C) $31, (D) $35
Answer: C
Solve for y. y – 2 + 3y = 10
(A) 2, (B) 3, (C) 4, (D) 5
Answer: B
Solve 3 over 2 * w = 66.
(A) 33, (B) 44, (C) 88, (D) 99
Answer: B
Write 5.875 as a mixed number or fraction in simplest form.
(A) 5 and 8 over 9, (B) 5 and 7 over 8, (C) 7 over 8, (D) 5 and 87 over 105
Answer: B
Solve the equation 124 = m + 34.
(A) 158, (B) 90, (C) 88, (D) 4,216
Answer: B
Zelma buys p pounds of bananas for 40 cents per pound. She pays the clerk with a twenty-dollar bill. The clerk subtracts the total cost of the bananas from the twenty-dollar bill to determine the amount of change to give Zelma. Which expression represents the amount of change Zelma should receive?
(A) p - 20, (B) 20 - 40p, (C) 20 - 0.40p, (D) 0.40p - 20
Answer: C
Please answer the following question with just the correct option (A, B, C, or D) without any explanation or additional text.
Jack picks 60 apples from an apple tree. He uses 12 of them to make applesauce. He places the remaining apples equally into 6 gift baskets. Which equation can be used to determine the numberof apples, a, that Jack places into each gift basket?
(A) '(60/6)—12=a', (B) '(60—12)/6=a', (C) '(60-6)-12=a', (D) '(60+12)/6=a'
Answer:","","","","","","","","","","true","2","","","","","","","","","","",""
"survey-html-form","48","4346297","0.0-4.0-1.14","l53jgehrslhjz1h","5b16d24d388d8b00014fa6e6","67b62c430b9240ccd8986e70","67b631b38ff53dc7318c2ce0","0","26803.20000001788","","","{""mcAnswer"":""B""}","","","Jack picks 60 apples from an apple tree. He uses 12 of them to make applesauce. He places the remaining apples equally into 6 gift baskets. Which equation can be used to determine the numberof apples, a, that Jack places into each gift basket?","[""(60/6)—12=a"",""(60—12)/6=a"",""(60-6)-12=a"",""(60+12)/6=a""]","B","B","modiste","","B","37","algLinUCB_0.9","diff-topics","elementary_mathematics","The following are multiple choice questions about high_school_mathematics.
Colton and his dad bought a gallon of paint that cost $13. They also bought 2 brushes that cost $9 each. What was the total cost, not including tax, of the brushes and the paint they bought?
(A) $22, (B) $24, (C) $31, (D) $35
Answer: C
Solve for y. y – 2 + 3y = 10
(A) 2, (B) 3, (C) 4, (D) 5
Answer: B
Solve 3 over 2 * w = 66.
(A) 33, (B) 44, (C) 88, (D) 99
Answer: B
Write 5.875 as a mixed number or fraction in simplest form.
(A) 5 and 8 over 9, (B) 5 and 7 over 8, (C) 7 over 8, (D) 5 and 87 over 105
Answer: B
Solve the equation 124 = m + 34.
(A) 158, (B) 90, (C) 88, (D) 4,216
Answer: B
Zelma buys p pounds of bananas for 40 cents per pound. She pays the clerk with a twenty-dollar bill. The clerk subtracts the total cost of the bananas from the twenty-dollar bill to determine the amount of change to give Zelma. Which expression represents the amount of change Zelma should receive?
(A) p - 20, (B) 20 - 40p, (C) 20 - 0.40p, (D) 0.40p - 20
Answer: C
Please answer the following question with just the correct option (A, B, C, or D) without any explanation or additional text.
Jack picks 60 apples from an apple tree. He uses 12 of them to make applesauce. He places the remaining apples equally into 6 gift baskets. Which equation can be used to determine the numberof apples, a, that Jack places into each gift basket?
(A) '(60/6)—12=a', (B) '(60—12)/6=a', (C) '(60-6)-12=a', (D) '(60+12)/6=a'
Answer:","","","","","","","","","","","","","","","","","","","","","",""
"","","","","","","","","","","","","","","","","","","","","","","","","","","","B","","","","","","","","","","","","","","","","","","","","",""
"","","","","","","","","","","","","","","","","","","","","","","","","","","","","false","171","-1","B","true","true","defer","[]","true","2","false","0","{""elementary_mathematics"":[""42/52"",""31/51"",""8/10""],""high_school_mathematics"":[""27/50"",""23/53"",""4/6""],""college_mathematics"":[""22/50"",""27/51"",""3/7""]}","{""elementary_mathematics"":false,""college_mathematics"":true,""high_school_mathematics"":false}","You should outsource this problem to a human agent","null","false","null","true","null",""
"image-keyboard-response","49","4347799","0.0-4.0-2.14","l53jgehrslhjz1h","5b16d24d388d8b00014fa6e6","67b62c430b9240ccd8986e70","67b631b38ff53dc7318c2ce0","0","null","","","null","","","Jack picks 60 apples from an apple tree. He uses 12 of them to make applesauce. He places the remaining apples equally into 6 gift baskets. Which equation can be used to determine the numberof apples, a, that Jack places into each gift basket?","[""(60/6)—12=a"",""(60—12)/6=a"",""(60-6)-12=a"",""(60+12)/6=a""]","B","B","modiste","","B","37","algLinUCB_0.9","diff-topics","elementary_mathematics","The following are multiple choice questions about high_school_mathematics.
Colton and his dad bought a gallon of paint that cost $13. They also bought 2 brushes that cost $9 each. What was the total cost, not including tax, of the brushes and the paint they bought?
(A) $22, (B) $24, (C) $31, (D) $35
Answer: C
Solve for y. y – 2 + 3y = 10
(A) 2, (B) 3, (C) 4, (D) 5
Answer: B
Solve 3 over 2 * w = 66.
(A) 33, (B) 44, (C) 88, (D) 99
Answer: B
Write 5.875 as a mixed number or fraction in simplest form.
(A) 5 and 8 over 9, (B) 5 and 7 over 8, (C) 7 over 8, (D) 5 and 87 over 105
Answer: B
Solve the equation 124 = m + 34.
(A) 158, (B) 90, (C) 88, (D) 4,216
Answer: B
Zelma buys p pounds of bananas for 40 cents per pound. She pays the clerk with a twenty-dollar bill. The clerk subtracts the total cost of the bananas from the twenty-dollar bill to determine the amount of change to give Zelma. Which expression represents the amount of change Zelma should receive?
(A) p - 20, (B) 20 - 40p, (C) 20 - 0.40p, (D) 0.40p - 20
Answer: C
Please answer the following question with just the correct option (A, B, C, or D) without any explanation or additional text.
Jack picks 60 apples from an apple tree. He uses 12 of them to make applesauce. He places the remaining apples equally into 6 gift baskets. Which equation can be used to determine the numberof apples, a, that Jack places into each gift basket?
(A) '(60/6)—12=a', (B) '(60—12)/6=a', (C) '(60-6)-12=a', (D) '(60+12)/6=a'
Answer:","","","","","","","","","","","","","","","","","","","","","","feedback_imgs/Correct.png"
"call-function","50","4347800","0.0-4.0-0.15","l53jgehrslhjz1h","5b16d24d388d8b00014fa6e6","67b62c430b9240ccd8986e70","67b631b38ff53dc7318c2ce0","0","","","","","","defer","Let k be the number of real solutions of the equation e^x + x - 2 = 0 in the interval [0, 1], and let n be the number of real solutions that are not in [0, 1]. Which of the following is true?","[""k = 0 and n = 1"",""k = 1 and n = 0"",""k = n = 1"",""k > 1""]","B","B","modiste","","B","40","algLinUCB_0.9","diff-topics","college_mathematics","The following are multiple choice questions about high_school_mathematics.
Colton and his dad bought a gallon of paint that cost $13. They also bought 2 brushes that cost $9 each. What was the total cost, not including tax, of the brushes and the paint they bought?
(A) $22, (B) $24, (C) $31, (D) $35
Answer: C
Solve for y. y – 2 + 3y = 10
